File: CaptoSSA-database-withDOI.csv
DOI,Year,Materials Name,Electrolyte,E-type,Voltage (V),Specific surface area (m2/g),IDIG,N-doped (at%),O-doped (at%),Current density (A/g),Capacitance (F/g)
10.1186/s11671-017-2151-4,2017,cgacf,KOH,2,1,1435,0.87,0,0,0.1,218
10.1186/s11671-017-2151-4,2017,cgacf,KOH,2,1,1435,0.87,0,0,0.5,209.3
10.1186/s11671-017-2151-4,2017,cgacf,KOH,2,1,1435,0.87,0,0,1,205
10.1186/s11671-017-2151-4,2017,cgacf,KOH,2,1,1435,0.87,0,0,2,203
10.1186/s11671-017-2151-4,2017,cgacf,KOH,2,1,1435,0.87,0,0,5,201
10.1186/s11671-017-2151-4,2017,cgacf,KOH,2,1,1435,0.87,0,0,10,194.6
10.1186/s11671-017-2151-4,2017,cgacf,KOH,2,1,1435,0.87,0,0,20,192
10.1186/s11671-017-2151-4,2017,AC,KOH,2,1,1282,1,0,0,0.1,175
10.1186/s11671-017-2151-4,2017,AC,KOH,2,1,1282,1,0,0,0.5,164
10.1186/s11671-017-2151-4,2017,AC,KOH,2,1,1282,1,0,0,1,157
10.1186/s11671-017-2151-4,2017,AC,KOH,2,1,1282,1,0,0,2,150.5
10.1186/s11671-017-2151-4,2017,AC,KOH,2,1,1282,1,0,0,5,142
10.1186/s11671-017-2151-4,2017,AC,KOH,2,1,1282,1,0,0,10,134.7
10.1186/s11671-017-2151-4,2017,AC,KOH,2,1,1282,1,0,0,20,122.5
10.1126/science.1200770,2011,,TEABF4/AN,2,2.7,3100,1.19,0,0,0.8,150
10.1126/science.1200770,2011,,BMIMBF4,2,3.5,3100,1.19,0,0,1.4,165
10.1126/science.1200770,2011,,BMIMBF4,2,3.5,3100,1.19,0,0,2.8,166
10.1126/science.1200770,2011,,BMIMBF4,2,3.5,3100,1.19,0,0,5.7,166
10.1126/science.1200770,2011,,EMITFSI,2,3.5,3100,1.19,0,0,0.7,200
10.1039/d0ta09985f,2021,CPIL-1,H2SO4,3,1,2485,0.79,2.87,12.21,0.5,279
10.1039/d0ta09985f,2021,CPIL-2,H2SO4,3,1,2423,0.79,4.21,9.49,0.5,304
10.1039/d0ta09985f,2021,CPIL-3,H2SO4,3,1,2629,0.81,7.55,9.2,0.5,359
10.1039/d0ta09985f,2021,CPIL-4,H2SO4,3,1,2157,0.82,7.57,8.06,0.5,321
10.1039/d0ta09985f,2021,CPIL-5,H2SO4,3,1,1152,0.84,8.96,8.43,0.5,239
10.1039/d0ta09985f,2021,CPIL-6,H2SO4,3,1,1049,0.86,9.05,7.81,0.5,235
10.1039/d0ta09985f,2021,CPIL-1,EMIMBF4,2,3.5,2485,0.79,2.87,12.21,0.2,135
10.1039/d0ta09985f,2021,CPIL-2,EMIMBF4,2,3.5,2423,0.79,4.21,9.49,0.2,141
10.1039/d0ta09985f,2021,CPIL-3,EMIMBF4,2,3.5,2629,0.81,7.55,9.2,0.2,211
10.1039/d0ta09985f,2021,CPIL-4,EMIMBF4,2,3.5,2157,0.82,7.57,8.06,0.2,158
10.1039/d0ta09985f,2021,CPIL-5,EMIMBF4,2,3.5,1152,0.84,8.96,8.43,0.2,101
10.1039/d0ta09985f,2021,CPIL-6,EMIMBF4,2,3.5,1049,0.86,9.05,7.81,0.2,98
10.1039/c8ta10406a,2019,HPC-1,KOH,3,1,2128,0.88,8.72,15.73,1,341
10.1039/c8ta10406a,2019,HPC-2,KOH,3,1,2379,0.88,6.9,10.17,1,402
10.1039/c8ta10406a,2019,HPC-2,KOH,3,1,2379,0.88,6.9,10.17,0.5,533
10.1039/c8ta10406a,2019,HPC-3,KOH,3,1,1921,0.88,6.51,10.75,1,311
10.1039/c8ta10406a,2019,HPC-4,KOH,3,1,690,0.83,10.23,14.04,1,200
10.1039/c8ta10406a,2019,HPC-5,KOH,3,1,1782,0.88,5.1,10.51,1,280
10.1039/c8ta10406a,2019,HPC-6,KOH,3,1,1247,0.93,2.39,12.64,1,261
10.1039/c8ta10158b,2019,PCN900,KOH,3,0.8,1527,0.84,4.99,8.78,1,241
10.1039/c8ta10158b,2019,PCN600,KOH,3,0.8,1620,0.96,11.64,10.41,1,186
10.1039/c8ta10158b,2019,PCN800,KOH,3,0.8,2218,0.87,6.15,12.66,1,267
10.1039/c8ta10158b,2019,PCN700,KOH,3,0.8,2660,0.89,10.95,10.37,1,358
10.1039/c8ta10158b,2019,PCN700,KOH,3,0.8,2660,0.89,10.95,10.37,0.5,376
10.1039/c8ta10158b,2019,PCN700,KOH,3,0.8,2660,0.89,10.95,10.37,50,206
10.1039/c8ta10158b,2019,PCN700,KOH,2,0.8,2660,0.89,10.95,10.37,72.5,0.2
10.1039/c8ta10158b,2019,PCN700,KOH,2,0.8,2660,0.89,10.95,10.37,70.5,0.5
10.1039/c8ta10158b,2019,PCN700,KOH,2,0.8,2660,0.89,10.95,10.37,67.5,1
10.1039/c8ta10158b,2019,PCN700,KOH,2,0.8,2660,0.89,10.95,10.37,56.4,2
10.1039/c8ta10158b,2019,PCN700,KOH,2,0.8,2660,0.89,10.95,10.37,48.8,5
10.1039/c8ta10158b,2019,PCN700,KOH,2,0.8,2660,0.89,10.95,10.37,41.3,10
10.1039/c8qm00284c,2018,C-B-800,KOH,2,1,191.2,0.91,0,0,0.5,21
10.1039/c8qm00284c,2018,C-B-900,KOH,2,1,542.5,1.04,0,0,0.5,96
10.1039/c8qm00284c,2018,C-B-1000,KOH,2,1,527.5,1.11,0,0,0.5,127
10.1039/c8qm00284c,2018,C-S-800,KOH,2,1,318.6,0.95,0,0,0.5,43
10.1039/c8qm00284c,2018,C-S-900,KOH,2,1,1356.3,1.09,0,0,0.5,264
10.1039/c8qm00284c,2018,C-S-1000,KOH,2,1,1122.3,1.12,0,0,0.5,192
10.1039/c8qm00284c,2018,C-B-800,KOH,2,1,191.2,0.91,0,0,5,16.3
10.1039/c8qm00284c,2018,C-B-900,KOH,2,1,542.5,1.04,0,0,5,88.4
10.1039/c8qm00284c,2018,C-B-1000,KOH,2,1,527.5,1.11,0,0,5,109.6
10.1039/c8qm00284c,2018,C-S-800,KOH,2,1,318.6,0.95,0,0,5,34.1
10.1039/c8qm00284c,2018,C-S-900,KOH,2,1,1356.3,1.09,0,0,5,234.8
10.1039/c8qm00284c,2018,C-S-1000,KOH,2,1,1122.3,1.12,0,0,5,171.2
10.1039/c8qm00284c,2018,C-B-800,KOH,2,1,191.2,0.91,0,0,10,14
10.1039/c8qm00284c,2018,C-B-900,KOH,2,1,542.5,1.04,0,0,10,87.5
10.1039/c8qm00284c,2018,C-B-1000,KOH,2,1,527.5,1.11,0,0,10,106
10.1039/c8qm00284c,2018,C-S-800,KOH,2,1,318.6,0.95,0,0,10,33.1
10.1039/c8qm00284c,2018,C-S-900,KOH,2,1,1356.3,1.09,0,0,10,232.5
10.1039/c8qm00284c,2018,C-S-1000,KOH,2,1,1122.3,1.12,0,0,10,170.2
10.1039/c8qm00284c,2018,C-B-800,KOH,2,1,191.2,0.91,0,0,20,11.3
10.1039/c8qm00284c,2018,C-B-900,KOH,2,1,542.5,1.04,0,0,20,87.4
10.1039/c8qm00284c,2018,C-B-1000,KOH,2,1,527.5,1.11,0,0,20,100
10.1039/c8qm00284c,2018,C-S-800,KOH,2,1,318.6,0.95,0,0,20,30
10.1039/c8qm00284c,2018,C-S-900,KOH,2,1,1356.3,1.09,0,0,20,228.6
10.1039/c8qm00284c,2018,C-S-1000,KOH,2,1,1122.3,1.12,0,0,20,166.3
10.1039/c8nr00207j,2018,PB-5,KOH,3,1,675,0.8,8.6,13.8,0.5,105
10.1039/c8nr00207j,2018,PB-15,KOH,3,1,862,0.77,9.1,11.7,0.5,199
10.1039/c8nr00207j,2018,PB-15,KOH,3,1,862,0.77,9.1,11.7,1,182
10.1039/c8nr00207j,2018,PB-15,KOH,3,1,862,0.77,9.1,11.7,2,163
10.1039/c8nr00207j,2018,PB-15,KOH,3,1,862,0.77,9.1,11.7,3,151
10.1039/c8nr00207j,2018,PB-15,KOH,3,1,862,0.77,9.1,11.7,4,144
10.1039/c8nr00207j,2018,PB-15,KOH,3,1,862,0.77,9.1,11.7,5,136
10.1039/c8nr00207j,2018,PB-15,KOH,3,1,862,0.77,9.1,11.7,10,127
10.1039/c8nr00207j,2018,PB-15,KOH,3,1,862,0.77,9.1,11.7,15,123
10.1039/c8nr00207j,2018,PB-15,KOH,3,1,862,0.77,9.1,11.7,20,120
10.1039/c8nr00207j,2018,PB-15,KOH,3,1,862,0.77,9.1,11.7,30,117
10.1039/c7ta05710e,2017,N-GPC,KOH,2,1,498.5,0.71,4.11,15.93,1,238
10.1039/c7ta05710e,2017,N-PC,KOH,2,1,665,1.01,5.82,11.8,1,175
10.1039/c7ta05710e,2017,N-GPC,KOH,2,1,498.5,0.71,4.11,15.93,5,211
10.1039/c7ta05710e,2017,N-PC,KOH,2,1,665,1.01,5.82,11.8,5,162
10.1039/c7ta05710e,2017,N-GPC,KOH,2,1,498.5,0.71,4.11,15.93,10,201
10.1039/c7ta05710e,2017,N-PC,KOH,2,1,665,1.01,5.82,11.8,10,125
10.1039/c7ta05710e,2017,N-GPC,KOH,2,1,498.5,0.71,4.11,15.93,20,187
10.1039/c7ta05710e,2017,N-PC,KOH,2,1,665,1.01,5.82,11.8,20,92
10.1039/c7ta05710e,2017,N-GPC,KOH,2,1,498.5,0.71,4.11,15.93,50,166
10.1039/c7ta05710e,2017,N-PC,KOH,2,1,665,1.01,5.82,11.8,50,68
10.1039/c7ta05710e,2017,N-GPC,KOH,2,1,498.5,0.71,4.11,15.93,100,148
10.1039/c7ta05710e,2017,N-PC,KOH,2,1,665,1.01,5.82,11.8,100,55
10.1039/c7ta05710e,2017,N-GPC,KOH,2,1,498.5,0.71,4.11,15.93,150,130
10.1039/c7ta05710e,2017,N-GPC,KOH,2,1,498.5,0.71,4.11,15.93,200,117
10.1039/c7ra07984b,2017,NC-700,KOH,3,1,1264,1.01,9.2,15.5,0.5,236
10.1039/c7ra07984b,2017,NC-800,KOH,3,1,1803,0.98,6.5,15.8,0.5,285
10.1039/c7ra07984b,2017,NC-900,KOH,3,1,2695,1.02,3.4,17.5,0.5,263
10.1039/c7ra07984b,2017,C-800,KOH,3,1,1438,0.91,0.6,11.9,0.5,248
10.1039/c7ra07984b,2017,NC-700,KOH,3,1,1264,1.01,9.2,15.5,1,216
10.1039/c7ra07984b,2017,NC-800,KOH,3,1,1803,0.98,6.5,15.8,1,270
10.1039/c7ra07984b,2017,NC-900,KOH,3,1,2695,1.02,3.4,17.5,1,242
10.1039/c7ra07984b,2017,C-800,KOH,3,1,1438,0.91,0.6,11.9,1,222
10.1039/c7ra07984b,2017,NC-700,KOH,3,1,1264,1.01,9.2,15.5,2,198
10.1039/c7ra07984b,2017,NC-800,KOH,3,1,1803,0.98,6.5,15.8,2,264
10.1039/c7ra07984b,2017,NC-900,KOH,3,1,2695,1.02,3.4,17.5,2,230
10.1039/c7ra07984b,2017,C-800,KOH,3,1,1438,0.91,0.6,11.9,2,213
10.1039/c7ra07984b,2017,NC-700,KOH,3,1,1264,1.01,9.2,15.5,5,189
10.1039/c7ra07984b,2017,NC-800,KOH,3,1,1803,0.98,6.5,15.8,5,245
10.1039/c7ra07984b,2017,NC-900,KOH,3,1,2695,1.02,3.4,17.5,5,206
10.1039/c7ra07984b,2017,C-800,KOH,3,1,1438,0.91,0.6,11.9,5,193
10.1039/c7ra07984b,2017,NC-700,KOH,3,1,1264,1.01,9.2,15.5,8,164
10.1039/c7ra07984b,2017,NC-800,KOH,3,1,1803,0.98,6.5,15.8,8,227
10.1039/c7ra07984b,2017,NC-900,KOH,3,1,2695,1.02,3.4,17.5,8,185
10.1039/c7ra07984b,2017,C-800,KOH,3,1,1438,0.91,0.6,11.9,8,182
10.1039/c7ra07984b,2017,NC-700,KOH,3,1,1264,1.01,9.2,15.5,10,154
10.1039/c7ra07984b,2017,NC-800,KOH,3,1,1803,0.98,6.5,15.8,10,226
10.1039/c7ra07984b,2017,NC-900,KOH,3,1,2695,1.02,3.4,17.5,10,172
10.1039/c7ra07984b,2017,C-800,KOH,3,1,1438,0.91,0.6,11.9,10,166
10.1039/c7ra07984b,2017,NC-700,KOH,3,1,1264,1.01,9.2,15.5,15,116
10.1039/c7ra07984b,2017,NC-800,KOH,3,1,1803,0.98,6.5,15.8,15,224
10.1039/c7ra07984b,2017,NC-900,KOH,3,1,2695,1.02,3.4,17.5,15,166
10.1039/c7ra07984b,2017,C-800,KOH,3,1,1438,0.91,0.6,11.9,15,153
10.1039/c7ra07984b,2017,NC-800,KOH,3,1,1803,0.98,6.5,15.8,20,200
10.1039/c7ra07984b,2017,NC-900,KOH,3,1,2695,1.02,3.4,17.5,20,138
10.1039/c7ra07984b,2017,C-800,KOH,3,1,1438,0.91,0.6,11.9,20,133
10.1039/c7ra07984b,2017,NC-800,KOH,2,1,1803,0.98,6.5,15.8,0.5,156
10.1039/c7ra07984b,2017,NC-800,KOH,2,1,1803,0.98,6.5,15.8,1,153
10.1039/c7ra07984b,2017,NC-800,KOH,2,1,1803,0.98,6.5,15.8,5,130
10.1039/c7ra07984b,2017,NC-800,KOH,2,1,1803,0.98,6.5,15.8,10,111
10.1039/c7ra07984b,2017,NC-800,KOH,2,1,1803,0.98,6.5,15.8,15,95
10.1039/c7ra07984b,2017,C-800,KOH,2,1,1438,0.91,0.6,11.9,0.5,130
10.1039/c7ra07984b,2017,C-800,KOH,2,1,1438,0.91,0.6,11.9,1,124
10.1039/c7ra07984b,2017,C-800,KOH,2,1,1438,0.91,0.6,11.9,5,99
10.1039/c7ra07984b,2017,C-800,KOH,2,1,1438,0.91,0.6,11.9,15,80
10.1039/c7ra07984b,2017,NC-800,H2SO4,2,1,1803,0.98,6.5,15.8,0.5,178
10.1039/c7ra07984b,2017,NC-800,H2SO4,2,1,1803,0.98,6.5,15.8,1,169
10.1039/c7ra07984b,2017,NC-800,H2SO4,2,1,1803,0.98,6.5,15.8,5,138
10.1039/c7ra07984b,2017,NC-800,H2SO4,2,1,1803,0.98,6.5,15.8,10,117
10.1039/c7ra07984b,2017,NC-800,H2SO4,2,1,1803,0.98,6.5,15.8,15,104
10.1039/c7ra07984b,2017,C-800,H2SO4,2,1,1438,0.91,0.6,11.9,0.5,132
10.1039/c7ra07984b,2017,C-800,H2SO4,2,1,1438,0.91,0.6,11.9,1,127
10.1039/c7ra07984b,2017,C-800,H2SO4,2,1,1438,0.91,0.6,11.9,5,101
10.1039/c7ra07984b,2017,C-800,H2SO4,2,1,1438,0.91,0.6,11.9,10,95
10.1039/c7nj01127j,2017,CK-700,H2SO4,3,1,847.9,0.92,1.45,25.07,0.5,220
10.1039/c7nj01127j,2017,CK-800,H2SO4,3,1,891.8,0.8,0.96,18.74,0.5,272
10.1039/c7nj01127j,2017,CK-900,H2SO4,3,1,878.2,0.78,1.02,15.88,0.5,250
10.1039/c7nj01127j,2017,CKU-800,H2SO4,3,1,1776.9,0.92,2.65,16.34,0.5,300.6
10.1039/c7nj01127j,2017,CK-700,H2SO4,3,1,847.9,0.92,1.45,25.07,1,202
10.1039/c7nj01127j,2017,CK-800,H2SO4,3,1,891.8,0.8,0.96,18.74,1,239
10.1039/c7nj01127j,2017,CK-900,H2SO4,3,1,878.2,0.78,1.02,15.88,1,220
10.1039/c7nj01127j,2017,CKU-800,H2SO4,3,1,1776.9,0.92,2.65,16.34,1,268
10.1039/c7nj01127j,2017,CK-700,H2SO4,3,1,847.9,0.92,1.45,25.07,2,186
10.1039/c7nj01127j,2017,CK-800,H2SO4,3,1,891.8,0.8,0.96,18.74,2,213
10.1039/c7nj01127j,2017,CK-900,H2SO4,3,1,878.2,0.78,1.02,15.88,2,197
10.1039/c7nj01127j,2017,CKU-800,H2SO4,3,1,1776.9,0.92,2.65,16.34,2,244
10.1039/c7nj01127j,2017,CK-700,H2SO4,3,1,847.9,0.92,1.45,25.07,5,174
10.1039/c7nj01127j,2017,CK-800,H2SO4,3,1,891.8,0.8,0.96,18.74,5,191
10.1039/c7nj01127j,2017,CK-900,H2SO4,3,1,878.2,0.78,1.02,15.88,5,180
10.1039/c7nj01127j,2017,CKU-800,H2SO4,3,1,1776.9,0.92,2.65,16.34,5,224
10.1039/c7nj01127j,2017,CK-700,H2SO4,3,1,847.9,0.92,1.45,25.07,10,167
10.1039/c7nj01127j,2017,CK-800,H2SO4,3,1,891.8,0.8,0.96,18.74,10,184
10.1039/c7nj01127j,2017,CK-900,H2SO4,3,1,878.2,0.78,1.02,15.88,10,172
10.1039/c7nj01127j,2017,CKU-800,H2SO4,3,1,1776.9,0.92,2.65,16.34,10,219
10.1039/c7nj01127j,2017,CK-700,H2SO4,3,1,847.9,0.92,1.45,25.07,20,165
10.1039/c7nj01127j,2017,CK-800,H2SO4,3,1,891.8,0.8,0.96,18.74,20,183
10.1039/c7nj01127j,2017,CK-900,H2SO4,3,1,878.2,0.78,1.02,15.88,20,172
10.1039/c7nj01127j,2017,CKU-800,H2SO4,3,1,1776.9,0.92,2.65,16.34,20,213
10.1039/c7gc00506g,2017,LHC-3K,EMITFSI,2,2.5,1660,0.94,0.7,4.7,1,218
10.1039/c7gc00506g,2017,LHC-2K,EMITFSI,2,2.5,1355,0.9,0.7,4.4,1,152
10.1039/c7gc00506g,2017,LHC-1K,EMITFSI,2,2.5,1290,0.88,0.6,3.3,1,130
10.1039/c7gc00506g,2017,LHC-3K,EMITFSI,2,2.5,1660,0.94,0.7,4.7,2,212
10.1039/c7gc00506g,2017,LHC-2K,EMITFSI,2,2.5,1355,0.9,0.7,4.4,2,146
10.1039/c7gc00506g,2017,LHC-1K,EMITFSI,2,2.5,1290,0.88,0.6,3.3,2,126
10.1039/c7gc00506g,2017,LHC-3K,EMITFSI,2,2.5,1660,0.94,0.7,4.7,5,205
10.1039/c7gc00506g,2017,LHC-2K,EMITFSI,2,2.5,1355,0.9,0.7,4.4,5,136
10.1039/c7gc00506g,2017,LHC-1K,EMITFSI,2,2.5,1290,0.88,0.6,3.3,5,118
10.1039/c7gc00506g,2017,LHC-3K,EMITFSI,2,2.5,1660,0.94,0.7,4.7,10,197
10.1039/c7gc00506g,2017,LHC-2K,EMITFSI,2,2.5,1355,0.9,0.7,4.4,10,128
10.1039/c7gc00506g,2017,LHC-1K,EMITFSI,2,2.5,1290,0.88,0.6,3.3,10,109
10.1039/c7gc00506g,2017,LHC-3K,EMITFSI,2,2.5,1660,0.94,0.7,4.7,15,195
10.1039/c7gc00506g,2017,LHC-2K,EMITFSI,2,2.5,1355,0.9,0.7,4.4,15,122
10.1039/c7gc00506g,2017,LHC-1K,EMITFSI,2,2.5,1290,0.88,0.6,3.3,15,113
10.1039/c7gc00506g,2017,LHC-3K,EMITFSI,2,2.5,1660,0.94,0.7,4.7,20,190
10.1039/c7gc00506g,2017,LHC-2K,EMITFSI,2,2.5,1355,0.9,0.7,4.4,20,118
10.1039/c7gc00506g,2017,LHC-1K,EMITFSI,2,2.5,1290,0.88,0.6,3.3,20,96
10.1039/c7gc00506g,2017,LHC-3K,EMITFSI,2,2.5,1660,0.94,0.7,4.7,25,185
10.1039/c7gc00506g,2017,LHC-2K,EMITFSI,2,2.5,1355,0.9,0.7,4.4,25,111
10.1039/c7gc00506g,2017,LHC-1K,EMITFSI,2,2.5,1290,0.88,0.6,3.3,25,91
10.1039/c7gc00506g,2017,LHC-3K,EMITFSI,2,2.5,1660,0.94,0.7,4.7,30,180
10.1039/c7gc00506g,2017,LHC-2K,EMITFSI,2,2.5,1355,0.9,0.7,4.4,30,107
10.1039/c7gc00506g,2017,LHC-1K,EMITFSI,2,2.5,1290,0.88,0.6,3.3,30,86
10.1039/c7gc00506g,2017,LHC-3K,EMITFSI,2,2.5,1660,0.94,0.7,4.7,35,174
10.1039/c7gc00506g,2017,LHC-2K,EMITFSI,2,2.5,1355,0.9,0.7,4.4,35,113
10.1039/c7gc00506g,2017,LHC-1K,EMITFSI,2,2.5,1290,0.88,0.6,3.3,35,80
10.1039/c7gc00506g,2017,LHC-3K,EMITFSI,2,2.5,1660,0.94,0.7,4.7,40,170
10.1039/c7gc00506g,2017,LHC-2K,EMITFSI,2,2.5,1355,0.9,0.7,4.4,40,98
10.1039/c7gc00506g,2017,LHC-1K,EMITFSI,2,2.5,1290,0.88,0.6,3.3,40,76
10.1039/c7gc00506g,2017,LHC-3K,EMITFSI,2,2.5,1660,0.94,0.7,4.7,45,163
10.1039/c7gc00506g,2017,LHC-2K,EMITFSI,2,2.5,1355,0.9,0.7,4.4,45,94
10.1039/c7gc00506g,2017,LHC-1K,EMITFSI,2,2.5,1290,0.88,0.6,3.3,45,71
10.1039/c7gc00506g,2017,LHC-3K,EMITFSI,2,2.5,1660,0.94,0.7,4.7,50,159
10.1039/c7gc00506g,2017,LHC-2K,EMITFSI,2,2.5,1355,0.9,0.7,4.4,50,88
10.1039/c7gc00506g,2017,LHC-1K,EMITFSI,2,2.5,1290,0.88,0.6,3.3,50,67
10.1039/c7gc00506g,2017,LHC-3K,KOH,3,1,1660,0.94,0.7,4.7,0.1,420
10.1039/c7gc00506g,2017,LHC-2K,KOH,3,1,1355,0.9,0.7,4.4,0.1,354
10.1039/c7gc00506g,2017,LHC-1K,KOH,3,1,1290,0.88,0.6,3.3,0.1,289
10.1039/c7gc00506g,2017,LHC-3K,KOH,3,1,1660,0.94,0.7,4.7,1,348
10.1039/c7gc00506g,2017,LHC-2K,KOH,3,1,1355,0.9,0.7,4.4,1,288
10.1039/c7gc00506g,2017,LHC-1K,KOH,3,1,1290,0.88,0.6,3.3,1,224
10.1039/c7gc00506g,2017,LHC-3K,KOH,3,1,1660,0.94,0.7,4.7,2,327
10.1039/c7gc00506g,2017,LHC-2K,KOH,3,1,1355,0.9,0.7,4.4,2,276
10.1039/c7gc00506g,2017,LHC-1K,KOH,3,1,1290,0.88,0.6,3.3,2,220
10.1039/c7gc00506g,2017,LHC-3K,KOH,3,1,1660,0.94,0.7,4.7,5,311
10.1039/c7gc00506g,2017,LHC-2K,KOH,3,1,1355,0.9,0.7,4.4,5,258
10.1039/c7gc00506g,2017,LHC-1K,KOH,3,1,1290,0.88,0.6,3.3,5,211
10.1039/c7gc00506g,2017,LHC-3K,KOH,3,1,1660,0.94,0.7,4.7,10,302
10.1039/c7gc00506g,2017,LHC-2K,KOH,3,1,1355,0.9,0.7,4.4,10,247
10.1039/c7gc00506g,2017,LHC-1K,KOH,3,1,1290,0.88,0.6,3.3,10,207
10.1039/c7gc00506g,2017,LHC-3K,KOH,3,1,1660,0.94,0.7,4.7,20,300
10.1039/c7gc00506g,2017,LHC-2K,KOH,3,1,1355,0.9,0.7,4.4,20,238
10.1039/c7gc00506g,2017,LHC-1K,KOH,3,1,1290,0.88,0.6,3.3,20,207
10.1039/c7gc00506g,2017,LHC-3K,KOH,3,1,1660,0.94,0.7,4.7,30,300
10.1039/c7gc00506g,2017,LHC-2K,KOH,3,1,1355,0.9,0.7,4.4,30,235
10.1039/c7gc00506g,2017,LHC-1K,KOH,3,1,1290,0.88,0.6,3.3,30,203
10.1039/c7gc00506g,2017,LHC-3K,KOH,3,1,1660,0.94,0.7,4.7,40,295
10.1039/c7gc00506g,2017,LHC-2K,KOH,3,1,1355,0.9,0.7,4.4,40,231
10.1039/c7gc00506g,2017,LHC-1K,KOH,3,1,1290,0.88,0.6,3.3,40,196
10.1039/c7gc00506g,2017,LHC-3K,KOH,3,1,1660,0.94,0.7,4.7,50,289
10.1039/c7gc00506g,2017,LHC-2K,KOH,3,1,1355,0.9,0.7,4.4,50,232
10.1039/c7gc00506g,2017,LHC-1K,KOH,3,1,1290,0.88,0.6,3.3,50,195
10.1039/c7gc00506g,2017,LHC-3K,KOH,3,1,1660,0.94,0.7,4.7,100,284
10.1039/c7gc00506g,2017,LHC-3K,KOH,2,1,1660,0.94,0.7,4.7,0.5,233
10.1039/c7gc00506g,2017,LHC-2K,KOH,2,1,1355,0.9,0.7,4.4,0.5,217
10.1039/c7gc00506g,2017,LHC-3K,KOH,2,1,1660,0.94,0.7,4.7,1,189
10.1039/c7gc00506g,2017,LHC-2K,KOH,2,1,1355,0.9,0.7,4.4,1,207
10.1039/c7gc00506g,2017,LHC-1K,KOH,2,1,1290,0.88,0.6,3.3,1,222
10.1039/c7gc00506g,2017,LHC-3K,KOH,2,1,1660,0.94,0.7,4.7,2,185
10.1039/c7gc00506g,2017,LHC-2K,KOH,2,1,1355,0.9,0.7,4.4,2,201
10.1039/c7gc00506g,2017,LHC-1K,KOH,2,1,1290,0.88,0.6,3.3,2,216
10.1039/c7gc00506g,2017,LHC-3K,KOH,2,1,1660,0.94,0.7,4.7,5,177
10.1039/c7gc00506g,2017,LHC-2K,KOH,2,1,1355,0.9,0.7,4.4,5,191
10.1039/c7gc00506g,2017,LHC-1K,KOH,2,1,1290,0.88,0.6,3.3,5,215
10.1039/c7gc00506g,2017,LHC-3K,KOH,2,1,1660,0.94,0.7,4.7,10,170
10.1039/c7gc00506g,2017,LHC-2K,KOH,2,1,1355,0.9,0.7,4.4,10,183
10.1039/c7gc00506g,2017,LHC-1K,KOH,2,1,1290,0.88,0.6,3.3,10,208
10.1039/c7gc00506g,2017,LHC-3K,KOH,2,1,1660,0.94,0.7,4.7,15,169
10.1039/c7gc00506g,2017,LHC-2K,KOH,2,1,1355,0.9,0.7,4.4,15,182
10.1039/c7gc00506g,2017,LHC-1K,KOH,2,1,1290,0.88,0.6,3.3,15,207
10.1039/c7gc00506g,2017,LHC-3K,KOH,2,1,1660,0.94,0.7,4.7,20,170
10.1039/c7gc00506g,2017,LHC-2K,KOH,2,1,1355,0.9,0.7,4.4,20,179
10.1039/c7gc00506g,2017,LHC-1K,KOH,2,1,1290,0.88,0.6,3.3,20,206
10.1039/c7gc00506g,2017,LHC-3K,KOH,2,1,1660,0.94,0.7,4.7,25,169
10.1039/c7gc00506g,2017,LHC-2K,KOH,2,1,1355,0.9,0.7,4.4,25,177
10.1039/c7gc00506g,2017,LHC-1K,KOH,2,1,1290,0.88,0.6,3.3,25,205
10.1039/c7gc00506g,2017,LHC-3K,KOH,2,1,1660,0.94,0.7,4.7,30,163
10.1039/c7gc00506g,2017,LHC-2K,KOH,2,1,1355,0.9,0.7,4.4,30,174
10.1039/c7gc00506g,2017,LHC-1K,KOH,2,1,1290,0.88,0.6,3.3,30,202
10.1039/c6ta07927j,2017,CHPCs,pure emimbf4,2,4,2855.7,1.74,0.51,5.07,0.5,344.1
10.1039/c6ta07927j,2017,HPCs,pure emimbf4,2,4,1921.7,1.905,0.93,6.4,1,178.7
10.1039/c6ta07927j,2017,CHPCs,pure emimbf4,2,4,2855.7,1.74,0.51,5.07,1,267
10.1039/c6ta07927j,2017,HPCs,pure emimbf4,2,4,1921.7,1.905,0.93,6.4,2,167.9
10.1039/c6ta07927j,2017,CHPCs,pure emimbf4,2,4,2855.7,1.74,0.51,5.07,2,228.6
10.1039/c6ta07927j,2017,HPCs,pure emimbf4,2,4,1921.7,1.905,0.93,6.4,3,131.1
10.1039/c6ta07927j,2017,CHPCs,pure emimbf4,2,4,2855.7,1.74,0.51,5.07,3,218.6
10.1039/c6ta07927j,2017,HPCs,pure emimbf4,2,4,1921.7,1.905,0.93,6.4,4,102.9
10.1039/c6ta07927j,2017,CHPCs,pure emimbf4,2,4,2855.7,1.74,0.51,5.07,4,209.4
10.1039/c6ta07927j,2017,HPCs,pure emimbf4,2,4,1921.7,1.905,0.93,6.4,5,76.3
10.1039/c6ta07927j,2017,CHPCs,pure emimbf4,2,4,2855.7,1.74,0.51,5.07,5,199.4
10.1039/c6ta07927j,2017,HPCs,pure emimbf4,2,4,1921.7,1.905,0.93,6.4,6,61.6
10.1039/c6ta07927j,2017,HPCs,pure emimbf4,2,4,1921.7,1.905,0.93,6.4,7,57.1
10.1039/c6ta07927j,2017,CHPCs,pure emimbf4,2,4,2855.7,1.74,0.51,5.07,7,185.6
10.1039/c6ta07927j,2017,HPCs,pure emimbf4,2,4,1921.7,1.905,0.93,6.4,8,55
10.1039/c6ta07927j,2017,CHPCs,pure emimbf4,2,4,2855.7,1.74,0.51,5.07,8,172.5
10.1039/c6ta07927j,2017,HPCs,pure emimbf4,2,4,1921.7,1.905,0.93,6.4,9,52.8
10.1039/c6ta07927j,2017,CHPCs,pure emimbf4,2,4,2855.7,1.74,0.51,5.07,9,156.1
10.1039/c6ta07927j,2017,HPCs,pure emimbf4,2,4,1921.7,1.905,0.93,6.4,10,50.7
10.1039/c6ta07927j,2017,CHPCs,pure emimbf4,2,4,2855.7,1.74,0.51,5.07,10,149.3
10.1039/c6ta06337c,2016,AC-550,KOH,3,0.8,1591,0.93,5.27,21,0.5,350
10.1039/c6ta06337c,2016,AC-550,H2SO4,3,0.9,1591,0.93,5.27,21,0.5,419
10.1039/c6ta06337c,2016,AC-650,KOH,3,0.8,3047,0.94,2.28,10,0.5,330
10.1039/c6ta06337c,2016,AC-650,H2SO4,3,0.9,3047,0.94,2.28,10,0.5,352
10.1039/c6ta06337c,2016,AC-750,KOH,3,0.8,3068,0.98,1.67,7,0.5,255
10.1039/c6ta06337c,2016,AC-750,H2SO4,3,0.9,3068,0.98,1.67,7,0.5,312
10.1039/c6ta06337c,2016,AC-550,KOH,3,0.8,1591,0.93,5.27,21,1,348
10.1039/c6ta06337c,2016,AC-550,H2SO4,3,0.9,1591,0.93,5.27,21,1,386
10.1039/c6ta06337c,2016,AC-650,KOH,3,0.8,3047,0.94,2.28,10,1,328
10.1039/c6ta06337c,2016,AC-650,H2SO4,3,0.9,3047,0.94,2.28,10,1,340
10.1039/c6ta06337c,2016,AC-750,KOH,3,0.8,3068,0.98,1.67,7,1,247
10.1039/c6ta06337c,2016,AC-750,H2SO4,3,0.9,3068,0.98,1.67,7,1,301
10.1039/c6ta06337c,2016,AC-550,KOH,3,0.8,1591,0.93,5.27,21,2,344
10.1039/c6ta06337c,2016,AC-550,H2SO4,3,0.9,1591,0.93,5.27,21,2,360
10.1039/c6ta06337c,2016,AC-650,KOH,3,0.8,3047,0.94,2.28,10,2,317
10.1039/c6ta06337c,2016,AC-650,H2SO4,3,0.9,3047,0.94,2.28,10,2,325
10.1039/c6ta06337c,2016,AC-750,KOH,3,0.8,3068,0.98,1.67,7,2,242
10.1039/c6ta06337c,2016,AC-750,H2SO4,3,0.9,3068,0.98,1.67,7,2,291
10.1039/c6ta06337c,2016,AC-550,KOH,3,0.8,1591,0.93,5.27,21,4,338
10.1039/c6ta06337c,2016,AC-550,H2SO4,3,0.9,1591,0.93,5.27,21,4,328
10.1039/c6ta06337c,2016,AC-650,KOH,3,0.8,3047,0.94,2.28,10,4,314
10.1039/c6ta06337c,2016,AC-650,H2SO4,3,0.9,3047,0.94,2.28,10,4,312
10.1039/c6ta06337c,2016,AC-750,KOH,3,0.8,3068,0.98,1.67,7,4,241
10.1039/c6ta06337c,2016,AC-750,H2SO4,3,0.9,3068,0.98,1.67,7,4,272
10.1039/c6ta06337c,2016,AC-550,KOH,3,0.8,1591,0.93,5.27,21,6,329
10.1039/c6ta06337c,2016,AC-550,H2SO4,3,0.9,1591,0.93,5.27,21,6,312
10.1039/c6ta06337c,2016,AC-650,KOH,3,0.8,3047,0.94,2.28,10,6,302
10.1039/c6ta06337c,2016,AC-650,H2SO4,3,0.9,3047,0.94,2.28,10,6,302
10.1039/c6ta06337c,2016,AC-750,KOH,3,0.8,3068,0.98,1.67,7,6,237
10.1039/c6ta06337c,2016,AC-750,H2SO4,3,0.9,3068,0.98,1.67,7,6,262
10.1039/c6ta06337c,2016,AC-550,KOH,3,0.8,1591,0.93,5.27,21,8,328
10.1039/c6ta06337c,2016,AC-550,H2SO4,3,0.9,1591,0.93,5.27,21,8,286
10.1039/c6ta06337c,2016,AC-650,KOH,3,0.8,3047,0.94,2.28,10,8,297
10.1039/c6ta06337c,2016,AC-650,H2SO4,3,0.9,3047,0.94,2.28,10,8,293
10.1039/c6ta06337c,2016,AC-750,KOH,3,0.8,3068,0.98,1.67,7,8,237
10.1039/c6ta06337c,2016,AC-750,H2SO4,3,0.9,3068,0.98,1.67,7,8,253
10.1039/c6ta06337c,2016,AC-550,KOH,3,0.8,1591,0.93,5.27,21,10,327
10.1039/c6ta06337c,2016,AC-550,H2SO4,3,0.9,1591,0.93,5.27,21,10,272
10.1039/c6ta06337c,2016,AC-650,KOH,3,0.8,3047,0.94,2.28,10,10,291
10.1039/c6ta06337c,2016,AC-650,H2SO4,3,0.9,3047,0.94,2.28,10,10,287
10.1039/c6ta06337c,2016,AC-750,KOH,3,0.8,3068,0.98,1.67,7,10,234
10.1039/c6ta06337c,2016,AC-750,H2SO4,3,0.9,3068,0.98,1.67,7,10,240
10.1039/c6ta06337c,2016,AC-550,KOH,3,0.8,1591,0.93,5.27,21,15,319
10.1039/c6ta06337c,2016,AC-550,H2SO4,3,0.9,1591,0.93,5.27,21,15,250
10.1039/c6ta06337c,2016,AC-650,KOH,3,0.8,3047,0.94,2.28,10,15,275
10.1039/c6ta06337c,2016,AC-650,H2SO4,3,0.9,3047,0.94,2.28,10,15,273
10.1039/c6ta06337c,2016,AC-750,KOH,3,0.8,3068,0.98,1.67,7,15,229
10.1039/c6ta06337c,2016,AC-750,H2SO4,3,0.9,3068,0.98,1.67,7,15,226
10.1039/c6ta06337c,2016,AC-550,KOH,3,0.8,1591,0.93,5.27,21,20,311
10.1039/c6ta06337c,2016,AC-550,H2SO4,3,0.9,1591,0.93,5.27,21,20,236
10.1039/c6ta06337c,2016,AC-650,KOH,3,0.8,3047,0.94,2.28,10,20,267
10.1039/c6ta06337c,2016,AC-650,H2SO4,3,0.9,3047,0.94,2.28,10,20,263
10.1039/c6ta06337c,2016,AC-750,KOH,3,0.8,3068,0.98,1.67,7,20,225
10.1039/c6ta06337c,2016,AC-750,H2SO4,3,0.9,3068,0.98,1.67,7,20,220
10.1039/c6ta06337c,2016,AC-550,KOH,3,0.8,1591,0.93,5.27,21,25,302
10.1039/c6ta06337c,2016,AC-550,H2SO4,3,0.9,1591,0.93,5.27,21,25,218
10.1039/c6ta06337c,2016,AC-650,KOH,3,0.8,3047,0.94,2.28,10,25,256
10.1039/c6ta06337c,2016,AC-650,H2SO4,3,0.9,3047,0.94,2.28,10,25,254
10.1039/c6ta06337c,2016,AC-750,KOH,3,0.8,3068,0.98,1.67,7,25,217
10.1039/c6ta06337c,2016,AC-750,H2SO4,3,0.9,3068,0.98,1.67,7,25,212
10.1039/c6ta06337c,2016,AC-550,KOH,3,0.8,1591,0.93,5.27,21,30,299
10.1039/c6ta06337c,2016,AC-550,H2SO4,3,0.9,1591,0.93,5.27,21,30,206
10.1039/c6ta06337c,2016,AC-650,KOH,3,0.8,3047,0.94,2.28,10,30,249
10.1039/c6ta06337c,2016,AC-650,H2SO4,3,0.9,3047,0.94,2.28,10,30,246
10.1039/c6ta06337c,2016,AC-750,KOH,3,0.8,3068,0.98,1.67,7,30,212
10.1039/c6ta06337c,2016,AC-750,H2SO4,3,0.9,3068,0.98,1.67,7,30,207
10.1039/c6ra26141h,2017,A-NSC,KOH,3,1,2385,0.8,0,8.3,0.5,294
10.1039/c6ra26141h,2017,A-N-MSC1,KOH,3,1,2795,0.84,0.95,7.1,0.5,360
10.1039/c6ra26141h,2017,A-N-MSC2,KOH,3,1,3003,0.86,1.7,5.79,0.5,390
10.1039/c6ra26141h,2017,A-NSC,KOH,3,1,2385,0.8,0,8.3,1,254
10.1039/c6ra26141h,2017,A-N-MSC1,KOH,3,1,2795,0.84,0.95,7.1,1,312
10.1039/c6ra26141h,2017,A-N-MSC2,KOH,3,1,3003,0.86,1.7,5.79,1,349
10.1039/c6ra26141h,2017,A-NSC,KOH,3,1,2385,0.8,0,8.3,2,234
10.1039/c6ra26141h,2017,A-N-MSC1,KOH,3,1,2795,0.84,0.95,7.1,2,288
10.1039/c6ra26141h,2017,A-N-MSC2,KOH,3,1,3003,0.86,1.7,5.79,2,333
10.1039/c6ra26141h,2017,A-NSC,KOH,3,1,2385,0.8,0,8.3,5,221
10.1039/c6ra26141h,2017,A-N-MSC1,KOH,3,1,2795,0.84,0.95,7.1,5,270
10.1039/c6ra26141h,2017,A-N-MSC2,KOH,3,1,3003,0.86,1.7,5.79,5,315
10.1039/c6ra26141h,2017,A-NSC,KOH,3,1,2385,0.8,0,8.3,8,216
10.1039/c6ra26141h,2017,A-N-MSC1,KOH,3,1,2795,0.84,0.95,7.1,8,261
10.1039/c6ra26141h,2017,A-N-MSC2,KOH,3,1,3003,0.86,1.7,5.79,8,308
10.1039/c6ra26141h,2017,A-NSC,KOH,3,1,2385,0.8,0,8.3,10,211
10.1039/c6ra26141h,2017,A-N-MSC1,KOH,3,1,2795,0.84,0.95,7.1,10,257
10.1039/c6ra26141h,2017,A-N-MSC2,KOH,3,1,3003,0.86,1.7,5.79,10,305
10.1039/c6ra13689c,2016,SNOPC,KOH,3,0.9,2335,1,1.1,11,0.5,315
10.1039/c6ra13689c,2016,SNOPC,KOH,3,0.9,2335,1,1.1,11,1,284
10.1039/c6ra13689c,2016,SNOPC,KOH,3,0.9,2335,1,1.1,11,2,245
10.1039/c6ra13689c,2016,SNOPC,KOH,3,0.9,2335,1,1.1,11,5,220
10.1039/c6ra13689c,2016,SNOPC,KOH,3,0.9,2335,1,1.1,11,10,205
10.1039/c6ra06424h,2016,PCPAC-2,KOH,2,1,679,0.83,0,0,1,306
10.1039/c6ra06424h,2016,PCPAC-2,KOH,2,1,679,0.83,0,0,2,289
10.1039/c6ra06424h,2016,PCPAC-2,KOH,2,1,679,0.83,0,0,5,274
10.1039/c6ra06424h,2016,PCPAC-2,KOH,2,1,679,0.83,0,0,8,266
10.1039/c6ra06424h,2016,PCPAC-2,KOH,2,1,679,0.83,0,0,10,262
10.1039/c6ra06424h,2016,PCPAC-2,KOH,2,1,679,0.83,0,0,15,243
10.1039/c6ra06424h,2016,PCPAC-2,KOH,2,1,679,0.83,0,0,30,205
10.1039/c6nr08987a,2017,MWCNT/NPC-S,H2SO4,3,0.9,642.5,1.53,10.969,4.735,2,198.6
10.1039/c6nr08987a,2017,NPC-L,H2SO4,3,0.9,999.7,1.72,10.193,4.335,2,157.1
10.1039/c6nr08987a,2017,MWCNT/NPC-M,H2SO4,3,0.9,884.6,1.53,10.081,3.52,2,229
10.1039/c6nr08987a,2017,MWCNT/NPC-L,H2SO4,3,0.9,928.2,1.53,10.454,2.492,2,302.2
10.1039/c6nr08987a,2017,MWCNT/NPC-S,H2SO4,3,0.9,642.5,1.53,10.969,4.735,3,190
10.1039/c6nr08987a,2017,NPC-L,H2SO4,3,0.9,999.7,1.72,10.193,4.335,3,149.3
10.1039/c6nr08987a,2017,MWCNT/NPC-M,H2SO4,3,0.9,884.6,1.53,10.081,3.52,3,220.8
10.1039/c6nr08987a,2017,MWCNT/NPC-L,H2SO4,3,0.9,928.2,1.53,10.454,2.492,3,279.4
10.1039/c6nr08987a,2017,MWCNT/NPC-S,H2SO4,3,0.9,642.5,1.53,10.969,4.735,5,182.8
10.1039/c6nr08987a,2017,NPC-L,H2SO4,3,0.9,999.7,1.72,10.193,4.335,5,137.7
10.1039/c6nr08987a,2017,MWCNT/NPC-M,H2SO4,3,0.9,884.6,1.53,10.081,3.52,5,211.4
10.1039/c6nr08987a,2017,MWCNT/NPC-L,H2SO4,3,0.9,928.2,1.53,10.454,2.492,5,257.2
10.1039/c6nr08987a,2017,MWCNT/NPC-S,H2SO4,3,0.9,642.5,1.53,10.969,4.735,10,172.1
10.1039/c6nr08987a,2017,NPC-L,H2SO4,3,0.9,999.7,1.72,10.193,4.335,10,118.3
10.1039/c6nr08987a,2017,MWCNT/NPC-M,H2SO4,3,0.9,884.6,1.53,10.081,3.52,10,200
10.1039/c6nr08987a,2017,MWCNT/NPC-L,H2SO4,3,0.9,928.2,1.53,10.454,2.492,10,247.8
10.1039/c6nr08987a,2017,mwcnt,H2SO4,3,0.9,282,1.1,0,0,2,81.5
10.1039/c6nr08987a,2017,mwcnt,H2SO4,3,0.9,282,1.1,0,0,3,77.7
10.1039/c6nr08987a,2017,mwcnt,H2SO4,3,0.9,282,1.1,0,0,5,74.2
10.1039/c6nr08987a,2017,mwcnt,H2SO4,3,0.9,282,1.1,0,0,10,71.5
10.1039/c6nr02155g,2016,MDC-700,KOH,2,1,773,2.95,0,3.6,0.5,142
10.1039/c6nr02155g,2016,MDC-900,KOH,2,1,1766,2.5,0,3.6,0.5,220
10.1039/c6nr02155g,2016,CDC-900,KOH,2,1,910,2.9,0,0,0.5,160
10.1039/c6nr02155g,2016,MDC-700,KOH,2,1,773,2.95,0,3.6,1,137
10.1039/c6nr02155g,2016,MDC-900,KOH,2,1,1766,2.5,0,3.6,1,215
10.1039/c6nr02155g,2016,CDC-900,KOH,2,1,910,2.9,0,0,1,156
10.1039/c6nr02155g,2016,MDC-700,KOH,2,1,773,2.95,0,3.6,2,131
10.1039/c6nr02155g,2016,MDC-900,KOH,2,1,1766,2.5,0,3.6,2,209
10.1039/c6nr02155g,2016,CDC-900,KOH,2,1,910,2.9,0,0,2,143
10.1039/c6nr02155g,2016,MDC-700,KOH,2,1,773,2.95,0,3.6,4,111
10.1039/c6nr02155g,2016,MDC-900,KOH,2,1,1766,2.5,0,3.6,4,195
10.1039/c6nr02155g,2016,CDC-900,KOH,2,1,910,2.9,0,0,4,123
10.1039/c6nr02155g,2016,MDC-700,KOH,2,1,773,2.95,0,3.6,6,99
10.1039/c6nr02155g,2016,MDC-900,KOH,2,1,1766,2.5,0,3.6,6,194
10.1039/c6nr02155g,2016,CDC-900,KOH,2,1,910,2.9,0,0,6,111
10.1039/c6nr02155g,2016,MDC-700,KOH,2,1,773,2.95,0,3.6,8,87
10.1039/c6nr02155g,2016,MDC-900,KOH,2,1,1766,2.5,0,3.6,8,188
10.1039/c6nr02155g,2016,CDC-900,KOH,2,1,910,2.9,0,0,8,102
10.1039/c6nr02155g,2016,MDC-700,KOH,2,1,773,2.95,0,3.6,10,84
10.1039/c6nr02155g,2016,MDC-900,KOH,2,1,1766,2.5,0,3.6,10,187
10.1039/c6nr02155g,2016,CDC-900,KOH,2,1,910,2.9,0,0,10,100
10.1039/c6nr02155g,2016,MDC-700,KOH,2,1,773,2.95,0,3.6,20,72
10.1039/c6nr02155g,2016,MDC-900,KOH,2,1,1766,2.5,0,3.6,20,158
10.1039/c6nr02155g,2016,CDC-900,KOH,2,1,910,2.9,0,0,20,88
10.1039/c5ta10170k,2016,BC-MS-700-14,H2SO4,2,1,1460,0.96,0,0,0.1,160
10.1039/c5ra26263a,2016,AACS-1,KOH,3,1,951.7,1.64,0,0,0.5,123
10.1039/c5ra26263a,2016,AACS-2,KOH,3,1,1379.4,1.91,0,0,0.5,139
10.1039/c5ra26263a,2016,AACS-3,KOH,3,1,1636.2,1.92,0,0,0.5,148
10.1039/c5ra26263a,2016,AACS-4,KOH,3,1,1748.2,1.93,0,0,0.5,177
10.1039/c5ra26263a,2016,AACS-5,KOH,3,1,2006.9,1.95,0,0,0.5,200
10.1039/c5ra26263a,2016,AACS-6,KOH,3,1,2178.2,1.97,0,0,0.5,222
10.1039/c5ra26263a,2016,AACS-1,KOH,3,1,951.7,1.64,0,0,5,112
10.1039/c5ra26263a,2016,AACS-2,KOH,3,1,1379.4,1.91,0,0,5,125
10.1039/c5ra26263a,2016,AACS-3,KOH,3,1,1636.2,1.92,0,0,5,134
10.1039/c5ra26263a,2016,AACS-4,KOH,3,1,1748.2,1.93,0,0,5,156
10.1039/c5ra26263a,2016,AACS-5,KOH,3,1,2006.9,1.95,0,0,5,175
10.1039/c5ra26263a,2016,AACS-6,KOH,3,1,2178.2,1.97,0,0,5,210
10.1039/c5ra26263a,2016,AACS-1,KOH,3,1,951.7,1.64,0,0,20,96
10.1039/c5ra26263a,2016,AACS-2,KOH,3,1,1379.4,1.91,0,0,20,114
10.1039/c5ra26263a,2016,AACS-3,KOH,3,1,1636.2,1.92,0,0,20,124
10.1039/c5ra26263a,2016,AACS-4,KOH,3,1,1748.2,1.93,0,0,20,136
10.1039/c5ra26263a,2016,AACS-5,KOH,3,1,2006.9,1.95,0,0,20,160
10.1039/c5ra26263a,2016,AACS-6,KOH,3,1,2178.2,1.97,0,0,20,195
10.1039/c5ra11179j,2015,CAC2,KOH,3,1,2548.6,0.96,0,0,0.5,239
10.1039/c5ra11179j,2015,CAC2,KOH,3,1,2548.6,0.96,0,0,1,226.1
10.1039/c5ra11179j,2015,CAC2,KOH,3,1,2548.6,0.96,0,0,2,217.3
10.1039/c5ra11179j,2015,CAC2,KOH,3,1,2548.6,0.96,0,0,3,206.5
10.1039/c5ra11179j,2015,CAC2,KOH,3,1,2548.6,0.96,0,0,5,199
10.1039/c5ra11179j,2015,CAC2,KOH,3,1,2548.6,0.96,0,0,8,196.4
10.1039/c5ra07807e,2015,HPC-9d,TEABF4/AN,2,2.7,1549,0.86,0,8.5,0.2,115
10.1039/c5ra07807e,2015,HPC-9,TEABF4/AN,2,2.7,1007,0.85,0,7.3,0.2,38
10.1039/c5ra07807e,2015,MPC-9,TEABF4/AN,2,2.7,648,0.83,0,0,0.2,1.9
10.1039/c5ra07807e,2015,HPC-9d,TEABF4/AN,2,2.7,1549,0.86,0,8.5,5,89
10.1039/c5ra07807e,2015,HPC-9,TEABF4/AN,2,2.7,1007,0.85,0,7.3,5,6
10.1039/c5ra07807e,2015,MPC-9,TEABF4/AN,2,2.7,648,0.83,0,0,5,2
10.1039/c5ra07807e,2015,HPC-9d,TEABF4/AN,2,2.7,1549,0.86,0,8.5,10,72
10.1039/c5ra07807e,2015,HPC-9,TEABF4/AN,2,2.7,1007,0.85,0,7.3,10,1
10.1039/c5ra07807e,2015,MPC-9,TEABF4/AN,2,2.7,648,0.83,0,0,10,1
10.1039/c5ra07807e,2015,HPC-9d,TEABF4/AN,2,2.7,1549,0.86,0,8.5,20,58
10.1039/c5ra07807e,2015,HPC-9d,KOH,2,0.9,1549,0.86,0,8.5,0.2,175.2
10.1039/c5ra07807e,2015,HPC-9,KOH,2,0.9,1007,0.85,0,7.3,0.2,147.2
10.1039/c5ra07807e,2015,MPC-9,KOH,2,0.9,648,0.83,0,0,0.2,174.4
10.1039/c5ra07807e,2015,HPC-9d,KOH,2,0.9,1549,0.86,0,8.5,1,154
10.1039/c5ra07807e,2015,HPC-9,KOH,2,0.9,1007,0.85,0,7.3,1,144
10.1039/c5ra07807e,2015,MPC-9,KOH,2,0.9,648,0.83,0,0,1,162
10.1039/c5ra07807e,2015,HPC-9d,KOH,2,0.9,1549,0.86,0,8.5,5,141
10.1039/c5ra07807e,2015,HPC-9,KOH,2,0.9,1007,0.85,0,7.3,5,128
10.1039/c5ra07807e,2015,HPC-9d,KOH,2,0.9,1549,0.86,0,8.5,10,136
10.1039/c5ra07807e,2015,HPC-9,KOH,2,0.9,1007,0.85,0,7.3,10,121
10.1039/c5ra07807e,2015,MPC-9,KOH,2,0.9,648,0.83,0,0,10,118
10.1039/c5ra07807e,2015,HPC-9d,KOH,2,0.9,1549,0.86,0,8.5,20,12
10.1039/c5ra07807e,2015,HPC-9,KOH,2,0.9,1007,0.85,0,7.3,20,104
10.1039/c5ra07807e,2015,MPC-9,KOH,2,0.9,648,0.83,0,0,20,84
10.1039/c5ra07807e,2015,HPC-9d,KOH,2,0.9,1549,0.86,0,8.5,50,91
10.1039/c5ra07807e,2015,HPC-9,KOH,2,0.9,1007,0.85,0,7.3,50,68
10.1039/c5ra07807e,2015,MPC-9,KOH,2,0.9,648,0.83,0,0,50,33
10.1039/c5ra05688h,2015,LS-600,KOH,3,0.9,943,1.15,2.06,23.32,1,232
10.1039/c5ra05688h,2015,LS-700,KOH,3,0.9,1177,1.27,1.88,21.89,1,267
10.1039/c5ra05688h,2015,LS-800,KOH,3,0.9,1733,1.38,1.64,18.98,1,304
10.1039/c5ra05688h,2015,LS-900,KOH,3,0.9,1841,1.78,1.39,17.14,1,187
10.1039/c5ra05688h,2015,LS-1000,KOH,3,0.9,1554,2.35,1.09,15.24,1,204
10.1039/c5ra05688h,2015,LS-600,KOH,3,0.9,943,1.15,2.06,23.32,2,224
10.1039/c5ra05688h,2015,LS-700,KOH,3,0.9,1177,1.27,1.88,21.89,2,249
10.1039/c5ra05688h,2015,LS-800,KOH,3,0.9,1733,1.38,1.64,18.98,2,293
10.1039/c5ra05688h,2015,LS-900,KOH,3,0.9,1841,1.78,1.39,17.14,2,177
10.1039/c5ra05688h,2015,LS-1000,KOH,3,0.9,1554,2.35,1.09,15.24,2,199
10.1039/c5ra05688h,2015,LS-600,KOH,3,0.9,943,1.15,2.06,23.32,3,215
10.1039/c5ra05688h,2015,LS-700,KOH,3,0.9,1177,1.27,1.88,21.89,3,236
10.1039/c5ra05688h,2015,LS-800,KOH,3,0.9,1733,1.38,1.64,18.98,3,282
10.1039/c5ra05688h,2015,LS-900,KOH,3,0.9,1841,1.78,1.39,17.14,3,165
10.1039/c5ra05688h,2015,LS-1000,KOH,3,0.9,1554,2.35,1.09,15.24,3,188
10.1039/c5ra05688h,2015,LS-600,KOH,3,0.9,943,1.15,2.06,23.32,5,210
10.1039/c5ra05688h,2015,LS-700,KOH,3,0.9,1177,1.27,1.88,21.89,5,225
10.1039/c5ra05688h,2015,LS-800,KOH,3,0.9,1733,1.38,1.64,18.98,5,261
10.1039/c5ra05688h,2015,LS-900,KOH,3,0.9,1841,1.78,1.39,17.14,5,147
10.1039/c5ra05688h,2015,LS-1000,KOH,3,0.9,1554,2.35,1.09,15.24,5,169
10.1039/c5ra05688h,2015,LS-600,KOH,3,0.9,943,1.15,2.06,23.32,10,189
10.1039/c5ra05688h,2015,LS-700,KOH,3,0.9,1177,1.27,1.88,21.89,10,201
10.1039/c5ra05688h,2015,LS-800,KOH,3,0.9,1733,1.38,1.64,18.98,10,211
10.1039/c5ra05688h,2015,LS-900,KOH,3,0.9,1841,1.78,1.39,17.14,10,106
10.1039/c5ra05688h,2015,LS-1000,KOH,3,0.9,1554,2.35,1.09,15.24,10,128
10.1039/c5ra05688h,2015,LS-600,KOH,3,0.9,943,1.15,2.06,23.32,20,162
10.1039/c5ra05688h,2015,LS-700,KOH,3,0.9,1177,1.27,1.88,21.89,20,176
10.1039/c5ra05688h,2015,LS-800,KOH,3,0.9,1733,1.38,1.64,18.98,20,202
10.1039/c5ra05688h,2015,LS-900,KOH,3,0.9,1841,1.78,1.39,17.14,20,85
10.1039/c5ra05688h,2015,LS-1000,KOH,3,0.9,1554,2.35,1.09,15.24,20,102
10.1039/c5ra05688h,2015,LS-600,KOH,3,0.9,943,1.15,2.06,23.32,30,140
10.1039/c5ra05688h,2015,LS-700,KOH,3,0.9,1177,1.27,1.88,21.89,30,157
10.1039/c5ra05688h,2015,LS-800,KOH,3,0.9,1733,1.38,1.64,18.98,30,191
10.1039/c5ra05688h,2015,LS-900,KOH,3,0.9,1841,1.78,1.39,17.14,30,72
10.1039/c5ra05688h,2015,LS-1000,KOH,3,0.9,1554,2.35,1.09,15.24,30,84
10.1039/c5ra05688h,2015,LS-800,KOH,3,0.9,1733,1.38,1.64,18.98,50,183
10.1039/c5ra05688h,2015,LS-800,KOH,2,1,1733,1.38,1.64,18.98,1,72
10.1039/c5ra05688h,2015,LS-800,KOH,2,1,1733,1.38,1.64,18.98,10,44.3
10.1039/c5ra05688h,2015,LS-800,KOH,2,1,1733,1.38,1.64,18.98,20,42
10.1039/c5ra05688h,2015,LS-800,Et4NBF4/PC,2,3,1733,1.38,1.64,18.98,1,51.5
10.1039/c5ra05688h,2015,LS-800,Et4NBF4/PC,2,3,1733,1.38,1.64,18.98,10,33.8
10.1039/c5nr05151g,2016,NPCFs-2,KOH,3,1,2502,0.94,6.3,9.2,0.1,341
10.1039/c5nr05151g,2016,NPCFs-1,KOH,3,1,1349,0.91,9,8.5,0.1,190
10.1039/c5nr05151g,2016,APPy-2,KOH,3,1,2360,0.88,8.5,8,0.1,260
10.1039/c5nr05151g,2016,NPCFs-2,KOH,3,1,2502,0.94,6.3,9.2,1,328
10.1039/c5nr05151g,2016,NPCFs-1,KOH,3,1,1349,0.91,9,8.5,1,165
10.1039/c5nr05151g,2016,APPy-2,KOH,3,1,2360,0.88,8.5,8,1,249
10.1039/c5nr05151g,2016,NPCFs-2,KOH,3,1,2502,0.94,6.3,9.2,5,298
10.1039/c5nr05151g,2016,NPCFs-1,KOH,3,1,1349,0.91,9,8.5,5,146
10.1039/c5nr05151g,2016,APPy-2,KOH,3,1,2360,0.88,8.5,8,5,234
10.1039/c5nr05151g,2016,NPCFs-2,KOH,3,1,2502,0.94,6.3,9.2,10,280
10.1039/c5nr05151g,2016,NPCFs-1,KOH,3,1,1349,0.91,9,8.5,10,137
10.1039/c5nr05151g,2016,APPy-2,KOH,3,1,2360,0.88,8.5,8,10,220
10.1039/c5nr05151g,2016,NPCFs-2,KOH,3,1,2502,0.94,6.3,9.2,20,267
10.1039/c5nr05151g,2016,NPCFs-1,KOH,3,1,1349,0.91,9,8.5,20,133
10.1039/c5nr05151g,2016,APPy-2,KOH,3,1,2360,0.88,8.5,8,20,209
10.1039/c5nr05151g,2016,NPCFs-2,KOH,3,1,2502,0.94,6.3,9.2,30,260
10.1039/c5nr05151g,2016,NPCFs-1,KOH,3,1,1349,0.91,9,8.5,30,131
10.1039/c5nr05151g,2016,APPy-2,KOH,3,1,2360,0.88,8.5,8,30,193
10.1039/c5nr05151g,2016,NPCFs-2,KOH,3,1,2502,0.94,6.3,9.2,40,252
10.1039/c5nr05151g,2016,NPCFs-1,KOH,3,1,1349,0.91,9,8.5,40,128
10.1039/c5nr05151g,2016,APPy-2,KOH,3,1,2360,0.88,8.5,8,40,178
10.1039/c5nr05151g,2016,NPCFs-2,KOH,3,1,2502,0.94,6.3,9.2,50,244
10.1039/c5nr05151g,2016,NPCFs-1,KOH,3,1,1349,0.91,9,8.5,50,125
10.1039/c5nr05151g,2016,APPy-2,KOH,3,1,2360,0.88,8.5,8,50,163
10.1039/c5nr05151g,2016,NPCFs-2,KOH,2,1,2502,0.94,6.3,9.2,1,314
10.1039/c5nr05151g,2016,NPCFs-1,KOH,2,1,1349,0.91,9,8.5,1,164
10.1039/c5nr05151g,2016,APPy-2,KOH,2,1,2360,0.88,8.5,8,1,184
10.1039/c5nr05151g,2016,NPCFs-2,KOH,2,1,2502,0.94,6.3,9.2,5,279
10.1039/c5nr05151g,2016,NPCFs-1,KOH,2,1,1349,0.91,9,8.5,5,156
10.1039/c5nr05151g,2016,APPy-2,KOH,2,1,2360,0.88,8.5,8,5,176
10.1039/c5nr05151g,2016,NPCFs-2,KOH,2,1,2502,0.94,6.3,9.2,10,261
10.1039/c5nr05151g,2016,NPCFs-1,KOH,2,1,1349,0.91,9,8.5,10,148
10.1039/c5nr05151g,2016,APPy-2,KOH,2,1,2360,0.88,8.5,8,10,159
10.1039/c5nr05151g,2016,NPCFs-2,KOH,2,1,2502,0.94,6.3,9.2,20,245
10.1039/c5nr05151g,2016,NPCFs-1,KOH,2,1,1349,0.91,9,8.5,20,142
10.1039/c5nr05151g,2016,APPy-2,KOH,2,1,2360,0.88,8.5,8,20,133
10.1039/c5nr05151g,2016,NPCFs-2,KOH,2,1,2502,0.94,6.3,9.2,30,220
10.1039/c5nr05151g,2016,NPCFs-1,KOH,2,1,1349,0.91,9,8.5,30,128
10.1039/c5nr05151g,2016,APPy-2,KOH,2,1,2360,0.88,8.5,8,30,108
10.1039/c5nr05151g,2016,NPCFs-2,KOH,2,1,2502,0.94,6.3,9.2,50,188
10.1039/c5nr05151g,2016,NPCFs-1,KOH,2,1,1349,0.91,9,8.5,50,107
10.1039/c5nr05151g,2016,APPy-2,KOH,2,1,2360,0.88,8.5,8,50,87
10.1039/c4ta06110a,2015,Exfoliated BC,H2SO4,3,1.2,543.68,0.89,1.2,8.5,0.5,221
10.1039/c4ta06110a,2015,Natural BC,H2SO4,3,1.2,7.91,0.68,0.6,1.9,0.5,2.1
10.1039/c4ta06110a,2015,Exfoliated BC,H2SO4,2,1,543.68,0.89,1.2,8.5,2,204
10.1039/c4ta06110a,2015,Natural BC,H2SO4,2,1,7.91,0.68,0.6,1.9,2,2.6
10.1039/c4ta06110a,2015,Exfoliated BC,H2SO4,2,1,543.68,0.89,1.2,8.5,5,198
10.1039/c4ta06110a,2015,Natural BC,H2SO4,2,1,7.91,0.68,0.6,1.9,5,3.1
10.1039/c4ta06110a,2015,Exfoliated BC,H2SO4,2,1,543.68,0.89,1.2,8.5,10,192
10.1039/c4ta06110a,2015,Natural BC,H2SO4,2,1,7.91,0.68,0.6,1.9,10,2.4
10.1039/c4ta06110a,2015,Exfoliated BC,H2SO4,2,1,543.68,0.89,1.2,8.5,15,185
10.1039/c4ta06110a,2015,Natural BC,H2SO4,2,1,7.91,0.68,0.6,1.9,15,1.6
10.1039/c4ta06110a,2015,Exfoliated BC,H2SO4,2,1,543.68,0.89,1.2,8.5,20,180
10.1039/c4ta06110a,2015,Natural BC,H2SO4,2,1,7.91,0.68,0.6,1.9,20,3
10.1039/c4ta06110a,2015,Exfoliated BC,H2SO4,2,1,543.68,0.89,1.2,8.5,25,176
10.1039/c4ta06110a,2015,Natural BC,H2SO4,2,1,7.91,0.68,0.6,1.9,25,2.3
10.1039/c4ta06110a,2015,Exfoliated BC,H2SO4,2,1,543.68,0.89,1.2,8.5,30,172
10.1039/c4ta06110a,2015,Natural BC,H2SO4,2,1,7.91,0.68,0.6,1.9,30,2.8
10.1039/c4ta06110a,2015,Exfoliated BC,H2SO4,2,1,543.68,0.89,1.2,8.5,35,170
10.1039/c4ta06110a,2015,Natural BC,H2SO4,2,1,7.91,0.68,0.6,1.9,35,2.9
10.1039/c4ta06110a,2015,Exfoliated BC,H2SO4,2,1,543.68,0.89,1.2,8.5,40,168
10.1039/c4ta06110a,2015,Natural BC,H2SO4,2,1,7.91,0.68,0.6,1.9,40,2.6
10.1039/c4ta02167c,2014,RC,KOH,3,1,477,1.01,0,0,1,80
10.1039/c4ta02167c,2014,RPC5,KOH,3,1,2753,1.12,0,0,1,307
10.1039/c4ta01465k,2014,CT,KOH,3,0.9,312,0.78,1.2,5.6,0.1,125
10.1039/c4ta01465k,2014,HPCT-1,KOH,3,0.9,1588,0.84,5.3,9.3,0.1,240.4
10.1039/c4ta01465k,2014,HPCT-2,KOH,3,0.9,2665,0.81,1.1,10.9,0.1,279.1
10.1039/c4ta01465k,2014,HPCT-3,KOH,3,0.9,2856,0.83,2.2,11.1,0.1,386.2
10.1039/c4ta01465k,2014,HPCT-4,KOH,3,0.9,3253,0.86,0.9,7.1,0.1,365.9
10.1039/c4ta01465k,2014,CT,KOH,3,0.9,312,0.78,1.2,5.6,1,92
10.1039/c4ta01465k,2014,HPCT-1,KOH,3,0.9,1588,0.84,5.3,9.3,1,198
10.1039/c4ta01465k,2014,HPCT-2,KOH,3,0.9,2665,0.81,1.1,10.9,1,222
10.1039/c4ta01465k,2014,HPCT-3,KOH,3,0.9,2856,0.83,2.2,11.1,1,294
10.1039/c4ta01465k,2014,HPCT-4,KOH,3,0.9,3253,0.86,0.9,7.1,1,290
10.1039/c4ta01465k,2014,CT,KOH,3,0.9,312,0.78,1.2,5.6,2,84
10.1039/c4ta01465k,2014,HPCT-1,KOH,3,0.9,1588,0.84,5.3,9.3,2,182
10.1039/c4ta01465k,2014,HPCT-2,KOH,3,0.9,2665,0.81,1.1,10.9,2,212
10.1039/c4ta01465k,2014,HPCT-3,KOH,3,0.9,2856,0.83,2.2,11.1,2,271
10.1039/c4ta01465k,2014,HPCT-4,KOH,3,0.9,3253,0.86,0.9,7.1,2,280
10.1039/c4ta01465k,2014,CT,KOH,3,0.9,312,0.78,1.2,5.6,3,76
10.1039/c4ta01465k,2014,HPCT-1,KOH,3,0.9,1588,0.84,5.3,9.3,3,169
10.1039/c4ta01465k,2014,HPCT-2,KOH,3,0.9,2665,0.81,1.1,10.9,3,203
10.1039/c4ta01465k,2014,HPCT-3,KOH,3,0.9,2856,0.83,2.2,11.1,3,253
10.1039/c4ta01465k,2014,HPCT-4,KOH,3,0.9,3253,0.86,0.9,7.1,3,266
10.1039/c4ta01465k,2014,CT,KOH,3,0.9,312,0.78,1.2,5.6,4,69
10.1039/c4ta01465k,2014,HPCT-1,KOH,3,0.9,1588,0.84,5.3,9.3,4,156
10.1039/c4ta01465k,2014,HPCT-2,KOH,3,0.9,2665,0.81,1.1,10.9,4,196
10.1039/c4ta01465k,2014,HPCT-3,KOH,3,0.9,2856,0.83,2.2,11.1,4,239
[...]
10.1021/acsami.1c22576,2022,NLPC1000,6M KOH,2,1,1464,1.139,1.8,10.5,5,110
10.1021/acsami.1c22576,2022,NLPC700,6M KOH,2,1,335.9,1.03,3.1,11.6,10,28
10.1021/acsami.1c22576,2022,NLPC800,6M KOH,2,1,548.8,1.029,2.7,11.4,10,89
10.1021/acsami.1c22576,2022,NLPC900,6M KOH,2,1,1053.8,1.055,2.2,11.8,10,73.4
10.1021/acsami.1c22576,2022,NLPC1000,6M KOH,2,1,1464,1.139,1.8,10.5,10,106
10.1021/acsami.1c22576,2022,NLPC800,1M Na2SO4,2,1.6,548.8,1.029,2.7,11.4,0.2,69
10.1021/acsami.1c22576,2022,NLPC900,1M Na2SO4,2,1.6,1053.8,1.055,2.2,11.8,0.2,127
10.1021/acsami.1c22576,2022,NLPC1000,1M Na2SO4,2,1.6,1464,1.139,1.8,10.5,0.2,124
10.1021/acsami.1c22576,2022,NLPC800,1M Na2SO4,2,1.6,548.8,1.029,2.7,11.4,0.5,59.6
10.1021/acsami.1c22576,2022,NLPC900,1M Na2SO4,2,1.6,1053.8,1.055,2.2,11.8,0.5,115.6
10.1021/acsami.1c22576,2022,NLPC1000,1M Na2SO4,2,1.6,1464,1.139,1.8,10.5,0.5,110.4
10.1021/acsami.1c22576,2022,NLPC800,1M Na2SO4,2,1.6,548.8,1.029,2.7,11.4,1,50.7
10.1021/acsami.1c22576,2022,NLPC900,1M Na2SO4,2,1.6,1053.8,1.055,2.2,11.8,1,109.5
10.1021/acsami.1c22576,2022,NLPC1000,1M Na2SO4,2,1.6,1464,1.139,1.8,10.5,1,102.6
10.1021/acsami.1c22576,2022,NLPC800,1M Na2SO4,2,1.6,548.8,1.029,2.7,11.4,2,40
10.1021/acsami.1c22576,2022,NLPC900,1M Na2SO4,2,1.6,1053.8,1.055,2.2,11.8,2,100
10.1021/acsami.1c22576,2022,NLPC1000,1M Na2SO4,2,1.6,1464,1.139,1.8,10.5,2,95
10.1021/acsami.1c22576,2022,NLPC800,1M Na2SO4,2,1.6,548.8,1.029,2.7,11.4,5,29.6
10.1021/acsami.1c22576,2022,NLPC900,1M Na2SO4,2,1.6,1053.8,1.055,2.2,11.8,5,75.5
10.1021/acsami.1c22576,2022,NLPC1000,1M Na2SO4,2,1.6,1464,1.139,1.8,10.5,5,82.6
10.1021/acsami.1c22576,2022,NLPC800,1M Na2SO4,2,1.6,548.8,1.029,2.7,11.4,10,17
10.1021/acsami.1c22576,2022,NLPC900,1M Na2SO4,2,1.6,1053.8,1.055,2.2,11.8,10,48.5
10.1021/acsami.1c22576,2022,NLPC1000,1M Na2SO4,2,1.6,1464,1.139,1.8,10.5,10,63.7
10.1021/acsami.2c19696,2023,CNFs,6M KOH,3,1,19.72,1.067,18.7,3.57,1,117.7
10.1021/acsami.2c19696,2023,PCNFs-0.67,6M KOH,3,1,251.3,1.024,9.48,15.05,1,147.7
10.1021/acsami.2c19696,2023,PCNFs-1.0,6M KOH,3,1,283.83,1.083,7.19,22.54,1,190.2
10.1021/acsami.2c19696,2023,PCNFs-1.5,6M KOH,3,1,441.83,1.098,6.8,25.79,1,234.1
10.1021/acsami.2c19696,2023,CNFs,6M KOH,3,1,19.72,1.067,18.7,3.57,70,39.2
10.1021/acsami.2c19696,2023,PCNFs-0.67,6M KOH,3,1,251.3,1.024,9.48,15.05,70,92.6
10.1021/acsami.2c19696,2023,PCNFs-1.0,6M KOH,3,1,283.83,1.083,7.19,22.54,70,121.7
10.1021/acsami.2c19696,2023,PCNFs-1.5,6M KOH,3,1,441.83,1.098,6.8,25.79,70,149.1
10.1021/acsami.2c19696,2023,CNFs,6M KOH,3,1,19.72,1.067,18.7,3.57,2,102
10.1021/acsami.2c19696,2023,PCNFs-0.67,6M KOH,3,1,251.3,1.024,9.48,15.05,2,129.6
10.1021/acsami.2c19696,2023,PCNFs-1.0,6M KOH,3,1,283.83,1.083,7.19,22.54,2,173
10.1021/acsami.2c19696,2023,PCNFs-1.5,6M KOH,3,1,441.83,1.098,6.8,25.79,2,211.1
10.1021/acsami.2c19696,2023,CNFs,6M KOH,3,1,19.72,1.067,18.7,3.57,5,74.6
10.1021/acsami.2c19696,2023,PCNFs-0.67,6M KOH,3,1,251.3,1.024,9.48,15.05,5,120.1
10.1021/acsami.2c19696,2023,PCNFs-1.0,6M KOH,3,1,283.83,1.083,7.19,22.54,5,154.5
10.1021/acsami.2c19696,2023,PCNFs-1.5,6M KOH,3,1,441.83,1.098,6.8,25.79,5,195.8
10.1021/acsami.2c19696,2023,CNFs,6M KOH,3,1,19.72,1.067,18.7,3.57,10,59.8
10.1021/acsami.2c19696,2023,PCNFs-0.67,6M KOH,3,1,251.3,1.024,9.48,15.05,10,108.5
10.1021/acsami.2c19696,2023,PCNFs-1.0,6M KOH,3,1,283.83,1.083,7.19,22.54,10,146
10.1021/acsami.2c19696,2023,PCNFs-1.5,6M KOH,3,1,441.83,1.098,6.8,25.79,10,175.7
10.1021/acsami.2c19696,2023,CNFs,6M KOH,3,1,19.72,1.067,18.7,3.57,20,54.5
10.1021/acsami.2c19696,2023,PCNFs-0.67,6M KOH,3,1,251.3,1.024,9.48,15.05,20,100.5
10.1021/acsami.2c19696,2023,PCNFs-1.0,6M KOH,3,1,283.83,1.083,7.19,22.54,20,139.2
10.1021/acsami.2c19696,2023,PCNFs-1.5,6M KOH,3,1,441.83,1.098,6.8,25.79,20,166
10.1021/acsami.2c19696,2023,CNFs,6M KOH,3,1,19.72,1.067,18.7,3.57,30,51.3
10.1021/acsami.2c19696,2023,PCNFs-0.67,6M KOH,3,1,251.3,1.024,9.48,15.05,30,96.3
10.1021/acsami.2c19696,2023,PCNFs-1.0,6M KOH,3,1,283.83,1.083,7.19,22.54,30,133.3
10.1021/acsami.2c19696,2023,PCNFs-1.5,6M KOH,3,1,441.83,1.098,6.8,25.79,30,162.4
10.1021/acsami.2c19696,2023,CNFs,6M KOH,3,1,19.72,1.067,18.7,3.57,50,46
10.1021/acsami.2c19696,2023,PCNFs-0.67,6M KOH,3,1,251.3,1.024,9.48,15.05,50,95.2
10.1021/acsami.2c19696,2023,PCNFs-1.0,6M KOH,3,1,283.83,1.083,7.19,22.54,50,127
10.1021/acsami.2c19696,2023,PCNFs-1.5,6M KOH,3,1,441.83,1.098,6.8,25.79,50,153
10.1021/acsami.2c19696,2023,PCNFs-1.5,6M KOH,2,1,441.83,1.098,6.8,25.79,50,151.6
10.1021/acsami.2c19696,2023,PCNFs-1.5,6M KOH,2,1,441.83,1.098,6.8,25.79,30,164.8
10.1021/acsami.2c19696,2023,PCNFs-1.5,6M KOH,2,1,441.83,1.098,6.8,25.79,20,173.6
10.1021/acsami.2c19696,2023,PCNFs-1.5,6M KOH,2,1,441.83,1.098,6.8,25.79,10,187.6
10.1021/acsami.2c19696,2023,PCNFs-1.5,6M KOH,2,1,441.83,1.098,6.8,25.79,5,199.2
10.1021/acsami.2c19696,2023,PCNFs-1.5,6M KOH,2,1,441.83,1.098,6.8,25.79,2,212
10.1021/acsami.2c19696,2023,PCNFs-1.5,6M KOH,2,1,441.83,1.098,6.8,25.79,1,224
10.3390/ijerph20021355,2023,NHC1,6M KOH,3,1,15.13,1.286,3.55,14.69,1,65.2
10.3390/ijerph20021355,2023,NHC2,6M KOH,3,1,14.38,1.32,3.63,14.18,1,82.8
10.3390/ijerph20021355,2023,NHC3,6M KOH,3,1,16.53,1.279,3.78,14.16,1,63.2
10.3390/ijerph20021355,2023,NAHC1,6M KOH,3,1,1175.46,1.472,2.93,5.39,1,210.5
10.3390/ijerph20021355,2023,NAHC1,6M KOH,3,1,1175.46,1.472,2.93,5.39,10,151
10.1016/j.jcis.2022.10.106,2023,O-PCN-0,6M KOH,3,1,1386,1.07,0,8.4,1,181
10.1016/j.jcis.2022.10.106,2023,O-PCN-5,6M KOH,3,1,568,1.04,0,9.3,1,244
10.1016/j.jcis.2022.10.106,2023,O-PCN-10,6M KOH,3,1,713,1.02,0,11.2,1,329
10.1016/j.jcis.2022.10.106,2023,O-PCN-20,6M KOH,3,1,930,0.93,0,11.4,1,375
10.1016/j.jcis.2022.10.106,2023,O-PCN-30,6M KOH,3,1,865,0.87,0,9.2,1,310
10.1016/j.jcis.2022.10.106,2023,O-PCN-0,6M KOH,3,1,1386,1.07,0,8.4,20,137.9
10.1016/j.jcis.2022.10.106,2023,O-PCN-5,6M KOH,3,1,568,1.04,0,9.3,20,185.9
10.1016/j.jcis.2022.10.106,2023,O-PCN-10,6M KOH,3,1,713,1.02,0,11.2,20,256
10.1016/j.jcis.2022.10.106,2023,O-PCN-20,6M KOH,3,1,930,0.93,0,11.4,20,304
10.1016/j.jcis.2022.10.106,2023,O-PCN-30,6M KOH,3,1,865,0.87,0,9.2,20,255.8
10.1016/j.jcis.2022.10.106,2023,O-PCN-0,6M KOH,3,1,1386,1.07,0,8.4,2,166
10.1016/j.jcis.2022.10.106,2023,O-PCN-5,6M KOH,3,1,568,1.04,0,9.3,2,222
10.1016/j.jcis.2022.10.106,2023,O-PCN-10,6M KOH,3,1,713,1.02,0,11.2,2,302
10.1016/j.jcis.2022.10.106,2023,O-PCN-20,6M KOH,3,1,930,0.93,0,11.4,2,346
10.1016/j.jcis.2022.10.106,2023,O-PCN-30,6M KOH,3,1,865,0.87,0,9.2,2,292
10.1016/j.jcis.2022.10.106,2023,O-PCN-0,6M KOH,3,1,1386,1.07,0,8.4,5,153.6
10.1016/j.jcis.2022.10.106,2023,O-PCN-5,6M KOH,3,1,568,1.04,0,9.3,5,208
10.1016/j.jcis.2022.10.106,2023,O-PCN-10,6M KOH,3,1,713,1.02,0,11.2,5,282
10.1016/j.jcis.2022.10.106,2023,O-PCN-20,6M KOH,3,1,930,0.93,0,11.4,5,328
10.1016/j.jcis.2022.10.106,2023,O-PCN-30,6M KOH,3,1,865,0.87,0,9.2,5,274.5
10.1016/j.jcis.2022.10.106,2023,O-PCN-0,6M KOH,3,1,1386,1.07,0,8.4,7,149
10.1016/j.jcis.2022.10.106,2023,O-PCN-5,6M KOH,3,1,568,1.04,0,9.3,7,202
10.1016/j.jcis.2022.10.106,2023,O-PCN-10,6M KOH,3,1,713,1.02,0,11.2,7,274.5
10.1016/j.jcis.2022.10.106,2023,O-PCN-20,6M KOH,3,1,930,0.93,0,11.4,7,320
10.1016/j.jcis.2022.10.106,2023,O-PCN-30,6M KOH,3,1,865,0.87,0,9.2,7,269
10.1016/j.jcis.2022.10.106,2023,O-PCN-0,6M KOH,3,1,1386,1.07,0,8.4,10,146
10.1016/j.jcis.2022.10.106,2023,O-PCN-5,6M KOH,3,1,568,1.04,0,9.3,10,196
10.1016/j.jcis.2022.10.106,2023,O-PCN-10,6M KOH,3,1,713,1.02,0,11.2,10,269
10.1016/j.jcis.2022.10.106,2023,O-PCN-20,6M KOH,3,1,930,0.93,0,11.4,10,315
10.1016/j.jcis.2022.10.106,2023,O-PCN-30,6M KOH,3,1,865,0.87,0,9.2,10,264
10.1016/j.diamond.2022.109586,2023,CS,6M KOH,3,1,6.8,1.027,8.01,0,0.5,96.85
10.1016/j.diamond.2022.109586,2023,ACS,6M KOH,3,1,158.1,0.714,6.91,0,0.5,167.55
10.1016/j.diamond.2022.109586,2023,NCS,6M KOH,3,1,636.1,1.102,9.83,0,0.5,253
10.1016/j.diamond.2022.109586,2023,CS,6M KOH,3,1,6.8,1.027,8.01,0,1,79.6
10.1016/j.diamond.2022.109586,2023,ACS,6M KOH,3,1,158.1,0.714,6.91,0,1,150.8
10.1016/j.diamond.2022.109586,2023,NCS,6M KOH,3,1,636.1,1.102,9.83,0,1,222.5
10.1016/j.diamond.2022.109586,2023,CS,6M KOH,3,1,6.8,1.027,8.01,0,2,64.6
10.1016/j.diamond.2022.109586,2023,ACS,6M KOH,3,1,158.1,0.714,6.91,0,2,134.5
10.1016/j.diamond.2022.109586,2023,NCS,6M KOH,3,1,636.1,1.102,9.83,0,2,182.4
10.1016/j.diamond.2022.109586,2023,CS,6M KOH,3,1,6.8,1.027,8.01,0,5,37.3
10.1016/j.diamond.2022.109586,2023,ACS,6M KOH,3,1,158.1,0.714,6.91,0,5,84.5
10.1016/j.diamond.2022.109586,2023,NCS,6M KOH,3,1,636.1,1.102,9.83,0,5,99.6
10.1016/j.diamond.2022.109586,2023,CS,6M KOH,3,1,6.8,1.027,8.01,0,10,18.4
10.1016/j.diamond.2022.109586,2023,ACS,6M KOH,3,1,158.1,0.714,6.91,0,10,47.4
10.1016/j.diamond.2022.109586,2023,NCS,6M KOH,3,1,636.1,1.102,9.83,0,10,66.2
10.1016/j.carbon.2022.09.022,2023,CNF,6M KOH,3,1,160,2.23,8.6,3.4,1,128.5
10.1016/j.carbon.2022.09.022,2023,RCNF-0.1,6M KOH,3,1,34,2.18,8.6,4.8,5,150
10.1016/j.carbon.2022.09.022,2023,RCNF-0.3,6M KOH,3,1,192,1.96,4.8,12.6,5,169.8
10.1016/j.carbon.2022.09.022,2023,RCNF-0.4,6M KOH,3,1,70,1.92,7.2,19.3,5,158
10.1016/j.carbon.2022.09.022,2023,CNF,6M KOH,3,1,160,2.23,8.6,3.4,10,70.4
10.1016/j.carbon.2022.09.022,2023,RCNF-0.1,6M KOH,3,1,34,2.18,8.6,4.8,10,137
10.1016/j.carbon.2022.09.022,2023,RCNF-0.2,6M KOH,3,1,218,1.98,10.7,5.5,10,149
10.1016/j.carbon.2022.09.022,2023,RCNF-0.3,6M KOH,3,1,192,1.96,4.8,12.6,10,159
10.1016/j.carbon.2022.09.022,2023,RCNF-0.4,6M KOH,3,1,70,1.92,7.2,19.3,10,145
10.1016/j.carbon.2022.09.022,2023,CNF,6M KOH,3,1,160,2.23,8.6,3.4,20,51.4
10.1016/j.carbon.2022.09.022,2023,RCNF-0.1,6M KOH,3,1,34,2.18,8.6,4.8,20,122
10.1016/j.carbon.2022.09.022,2023,RCNF-0.2,6M KOH,3,1,218,1.98,10.7,5.5,20,136
10.1016/j.carbon.2022.09.022,2023,RCNF-0.3,6M KOH,3,1,192,1.96,4.8,12.6,20,147.1
10.1016/j.carbon.2022.09.022,2023,RCNF-0.4,6M KOH,3,1,70,1.92,7.2,19.3,20,129
10.1016/j.carbon.2022.09.022,2023,CNF,6M KOH,3,1,160,2.23,8.6,3.4,50,24.3
10.1016/j.carbon.2022.09.022,2023,RCNF-0.1,6M KOH,3,1,34,2.18,8.6,4.8,50,90
10.1016/j.carbon.2022.09.022,2023,RCNF-0.2,6M KOH,3,1,218,1.98,10.7,5.5,50,100
10.1016/j.carbon.2022.09.022,2023,RCNF-0.3,6M KOH,3,1,192,1.96,4.8,12.6,50,114
10.1016/j.carbon.2022.09.022,2023,RCNF-0.4,6M KOH,3,1,70,1.92,7.2,19.3,50,90
10.1016/j.carbon.2022.09.022,2023,RCNF-0.1,6M KOH,3,1,34,2.18,8.6,4.8,100,57
10.1016/j.carbon.2022.09.022,2023,RCNF-0.2,6M KOH,3,1,218,1.98,10.7,5.5,100,61
10.1016/j.carbon.2022.09.022,2023,RCNF-0.3,6M KOH,3,1,192,1.96,4.8,12.6,100,70
10.1016/j.carbon.2022.09.022,2023,RCNF-0.4,6M KOH,3,1,70,1.92,7.2,19.3,100,53
10.1016/j.electacta.2022.141778,2023,APC-800-8,hybrid electrolyte,2,2.4,3526,0.94,0,7.3,0.1,51.3
10.1016/j.electacta.2022.141778,2023,APC-900-8,hybrid electrolyte,2,2.4,4100.9,0.94,0,5.4,0.1,34.9
10.1016/j.electacta.2022.141778,2023,APC-800-8,organic electrolyte,2,2.7,3526,0.94,0,7.3,0.1,41.3
10.1016/j.electacta.2022.141778,2023,APC-900-8,organic electrolyte,2,2.7,4100.9,0.94,0,5.4,0.1,29.5
10.1016/j.electacta.2022.141778,2023,APC-800-8,hybrid electrolyte,2,2.4,3526,0.94,0,7.3,1,45.6
10.1016/j.electacta.2022.141778,2023,APC-900-8,hybrid electrolyte,2,2.4,4100.9,0.94,0,5.4,0.9,33.9
10.1016/j.electacta.2022.141778,2023,APC-800-8,organic electrolyte,2,2.7,3526,0.94,0,7.3,1,32.4
10.1016/j.electacta.2022.141778,2023,APC-900-8,organic electrolyte,2,2.7,4100.9,0.94,0,5.4,2.7,25.8
10.1016/j.electacta.2022.141778,2023,APC-800-8,hybrid electrolyte,2,2.4,3526,0.94,0,7.3,2,41.4
10.1016/j.electacta.2022.141778,2023,APC-900-8,hybrid electrolyte,2,2.4,4100.9,0.94,0,5.4,2.5,32.4
10.1016/j.electacta.2022.141778,2023,APC-800-8,organic electrolyte,2,2.7,3526,0.94,0,7.3,2.4,20.3
10.1016/j.electacta.2022.141778,2023,APC-900-8,organic electrolyte,2,2.7,4100.9,0.94,0,5.4,4.7,23.7
10.1016/j.electacta.2022.141778,2023,APC-800-8,hybrid electrolyte,2,2.4,3526,0.94,0,7.3,4.5,34.1
10.1016/j.electacta.2022.141778,2023,APC-900-8,hybrid electrolyte,2,2.4,4100.9,0.94,0,5.4,3.4,31.8
10.1016/j.electacta.2022.141778,2023,APC-800-8,organic electrolyte,2,2.7,3526,0.94,0,7.3,4.8,8.9
10.1016/j.electacta.2022.141778,2023,APC-900-8,organic electrolyte,2,2.7,4100.9,0.94,0,5.4,6.7,22.6
10.1016/j.electacta.2022.141778,2023,APC-800-8,hybrid electrolyte,2,2.4,3526,0.94,0,7.3,6,30.3
10.1016/j.electacta.2022.141778,2023,APC-900-8,hybrid electrolyte,2,2.4,4100.9,0.94,0,5.4,6,30.8
10.1016/j.electacta.2022.141778,2023,APC-800-8,organic electrolyte,2,2.7,3526,0.94,0,7.3,7.2,4.7
10.1016/j.electacta.2022.141778,2023,APC-900-8,organic electrolyte,2,2.7,4100.9,0.94,0,5.4,10,18.1
10.1016/j.electacta.2022.141778,2023,APC-800-8,hybrid electrolyte,2,2.4,3526,0.94,0,7.3,9,22.1
10.1016/j.electacta.2022.141778,2023,APC-900-8,hybrid electrolyte,2,2.4,4100.9,0.94,0,5.4,12.5,29.1
10.1016/j.electacta.2022.141778,2023,APC-800-8,organic electrolyte,2,2.7,3526,0.94,0,7.3,9.6,2.7
10.1016/j.electacta.2022.141778,2023,APC-900-8,organic electrolyte,2,2.7,4100.9,0.94,0,5.4,13.6,16.7
10.1016/j.est.2022.106219,2023,BAC-10,6M KOH,3,1,1664.19,0.92,1.08,11.24,1,442
10.1016/j.est.2022.106219,2023,CAC,6M KOH,3,1,1853.53,0.89,0.28,14,1,396
10.1016/j.est.2022.106219,2023,BAC-10,6M KOH,3,1,1664.19,0.92,1.08,11.24,20,339.2
10.1016/j.est.2022.106219,2023,CAC,6M KOH,3,1,1853.53,0.89,0.28,14,20,276.4
10.1016/j.est.2022.106219,2023,BAC-10,6M KOH,3,1,1664.19,0.92,1.08,11.24,2,409
10.1016/j.est.2022.106219,2023,CAC,6M KOH,3,1,1853.53,0.89,0.28,14,2,341
10.1016/j.est.2022.106219,2023,BAC-10,6M KOH,3,1,1664.19,0.92,1.08,11.24,5,369
10.1016/j.est.2022.106219,2023,CAC,6M KOH,3,1,1853.53,0.89,0.28,14,5,300
10.1016/j.est.2022.106219,2023,BAC-10,6M KOH,3,1,1664.19,0.92,1.08,11.24,10,346
10.1016/j.est.2022.106219,2023,CAC,6M KOH,3,1,1853.53,0.89,0.28,14,10,282
10.1016/j.fuel.2022.125658,2023,SPLRL,6M KOH,3,1,3586,0.94,2.81,13.07,0.5,373
10.1016/j.fuel.2022.125658,2023,SPLRL,6M KOH,3,1,3586,0.94,2.81,13.07,20,300
10.1016/j.fuel.2022.125658,2023,SPLRL,6M KOH,3,1,3586,0.94,2.81,13.07,1,354
10.1016/j.fuel.2022.125658,2023,SPLRL,6M KOH,3,1,3586,0.94,2.81,13.07,2,339
10.1016/j.fuel.2022.125658,2023,SPLRL,6M KOH,3,1,3586,0.94,2.81,13.07,5,325
10.1016/j.fuel.2022.125658,2023,SPLRL,6M KOH,3,1,3586,0.94,2.81,13.07,10,311
10.1115/1.40543,2023,CPVDC-1,6M KOH,3,1,1056,1.12,7.7,9.8,0.5,261
10.1115/1.40543,2023,CPVDC-2,6M KOH,3,1,1838,1.13,4.2,10.5,0.5,319
10.1115/1.40543,2023,CPVDC-3,6M KOH,3,1,3120,1.14,1.5,13.6,0.5,402
10.1115/1.40543,2023,CPVDC-4,6M KOH,3,1,1941,1.18,1.3,14.1,0.5,340
10.1115/1.40543,2023,CPVDC-1,6M KOH,3,1,1056,1.12,7.7,9.8,1,248
10.1115/1.40543,2023,CPVDC-2,6M KOH,3,1,1838,1.13,4.2,10.5,1,309
10.1115/1.40543,2023,CPVDC-3,6M KOH,3,1,3120,1.14,1.5,13.6,1,389
10.1115/1.40543,2023,CPVDC-4,6M KOH,3,1,1941,1.18,1.3,14.1,1,322
10.1115/1.40543,2023,CPVDC-1,6M KOH,3,1,1056,1.12,7.7,9.8,2,238
10.1115/1.40543,2023,CPVDC-2,6M KOH,3,1,1838,1.13,4.2,10.5,2,295
10.1115/1.40543,2023,CPVDC-3,6M KOH,3,1,3120,1.14,1.5,13.6,2,330
10.1115/1.40543,2023,CPVDC-4,6M KOH,3,1,1941,1.18,1.3,14.1,2,282
10.1115/1.40543,2023,CPVDC-1,6M KOH,3,1,1056,1.12,7.7,9.8,5,230
10.1115/1.40543,2023,CPVDC-2,6M KOH,3,1,1838,1.13,4.2,10.5,5,279
10.1115/1.40543,2023,CPVDC-3,6M KOH,3,1,3120,1.14,1.5,13.6,5,286
10.1115/1.40543,2023,CPVDC-4,6M KOH,3,1,1941,1.18,1.3,14.1,5,241
10.1115/1.40543,2023,CPVDC-1,6M KOH,3,1,1056,1.12,7.7,9.8,10,212
10.1115/1.40543,2023,CPVDC-2,6M KOH,3,1,1838,1.13,4.2,10.5,10,260
10.1115/1.40543,2023,CPVDC-3,6M KOH,3,1,3120,1.14,1.5,13.6,10,260
10.1115/1.40543,2023,CPVDC-4,6M KOH,3,1,1941,1.18,1.3,14.1,10,181
10.1115/1.40543,2023,CPVDC-1,6M KOH,3,1,1056,1.12,7.7,9.8,20,201
10.1115/1.40543,2023,CPVDC-2,6M KOH,3,1,1838,1.13,4.2,10.5,20,242
10.1115/1.40543,2023,CPVDC-3,6M KOH,3,1,3120,1.14,1.5,13.6,20,220
10.1115/1.40543,2023,CPVDC-4,6M KOH,3,1,1941,1.18,1.3,14.1,20,130
10.1115/1.40543,2023,CPVDC-3,6M KOH,2,1,3120,1.14,1.5,13.6,1,320
10.1115/1.40543,2023,CPVDC-3,6M KOH,2,1,3120,1.14,1.5,13.6,2,227
10.1115/1.40543,2023,CPVDC-3,6M KOH,2,1,3120,1.14,1.5,13.6,5,240
10.1115/1.40543,2023,CPVDC-3,6M KOH,2,1,3120,1.14,1.5,13.6,10,235
10.1115/1.40543,2023,CPVDC-3,6M KOH,2,1,3120,1.14,1.5,13.6,20,220
10.1115/1.40543,2023,CPVDC-3,1M Na2SO4,2,1.6,3120,1.14,1.5,13.6,0.5,225
10.1115/1.40543,2023,CPVDC-3,1M Na2SO4,2,1.6,3120,1.14,1.5,13.6,1,198
10.1115/1.40543,2023,CPVDC-3,1M Na2SO4,2,1.6,3120,1.14,1.5,13.6,2,179
10.1115/1.40543,2023,CPVDC-3,1M Na2SO4,2,1.6,3120,1.14,1.5,13.6,5,154
10.1115/1.40543,2023,CPVDC-3,1M Na2SO4,2,1.6,3120,1.14,1.5,13.6,10,129
10.1021/acsomega.2c07143,2023,CNTs,1M Na2SO4,2,2,478,0.046,0,13.69,0.5,55
10.1021/acsomega.2c07143,2023,CNTs,1M NaHSO4,2,1.5,478,0.046,0,13.69,0.5,40
10.1021/acsomega.2c07143,2023,CNTs,1M NaOH,2,1,478,0.046,0,13.69,0.5,27
10.1021/acsomega.2c07143,2023,CNTs,1M Li2SO4,2,2,478,0.046,0,13.69,0.5,122
10.1021/acsomega.2c07143,2023,CNTs,1M Na2SO4,2,2,478,0.046,0,13.69,1,54
10.1021/acsomega.2c07143,2023,CNTs,1M NaHSO4,2,1.5,478,0.046,0,13.69,1,40
10.1021/acsomega.2c07143,2023,CNTs,1M NaOH,2,1,478,0.046,0,13.69,1,26
10.1021/acsomega.2c07143,2023,CNTs,1M Li2SO4,2,2,478,0.046,0,13.69,1,118
10.1021/acsomega.2c07143,2023,CNTs,1M Na2SO4,2,2,478,0.046,0,13.69,1.5,53
10.1021/acsomega.2c07143,2023,CNTs,1M NaHSO4,2,1.5,478,0.046,0,13.69,1.5,38
10.1021/acsomega.2c07143,2023,CNTs,1M NaOH,2,1,478,0.046,0,13.69,1.5,26
10.1021/acsomega.2c07143,2023,CNTs,1M Li2SO4,2,2,478,0.046,0,13.69,1.5,116
10.1021/acsomega.2c07143,2023,CNTs,1M Na2SO4,2,2,478,0.046,0,13.69,2.5,50
10.1021/acsomega.2c07143,2023,CNTs,1M NaHSO4,2,1.5,478,0.046,0,13.69,2.5,36
10.1021/acsomega.2c07143,2023,CNTs,1M NaOH,2,1,478,0.046,0,13.69,2.5,25
10.1021/acsomega.2c07143,2023,CNTs,1M Li2SO4,2,2,478,0.046,0,13.69,2.5,108
10.3390/ijerph20021355,2023,NHC1,6M KOH,3,1,15.13,1.286,3.55,14.69,1,65.2
10.3390/ijerph20021355,2023,NHC2,6M KOH,3,1,14.38,1.32,3.63,14.18,1,82.8
10.3390/ijerph20021355,2023,NHC3,6M KOH,3,1,16.53,1.279,3.78,14.16,1,63.2
10.3390/ijerph20021355,2023,NAHC1,6M KOH,3,1,1175.46,1.472,2.93,5.39,1,210.5
10.3390/ijerph20021355,2023,NAHC1,6M KOH,3,1,1175.46,1.472,2.93,5.39,10,151
10.1016/j.jcis.2022.10.106,2023,PC-K1,1M H2SO4,3,1,988,0.98,0,4.61,0.5,201
10.1016/j.jcis.2022.10.106,2023,PC-K4,1M H2SO4,3,1,1210,1,0,4.38,0.5,247
10.1016/j.jcis.2022.10.106,2023,PC-K1,6M KOH,3,1,988,0.98,0,4.61,0.5,239
10.1016/j.jcis.2022.10.106,2023,PC-K4,6M KOH,3,1,1210,1,0,4.38,0.5,294
10.1016/j.jcis.2022.10.106,2023,PC-K1,1M H2SO4,3,1,988,0.98,0,4.61,1,183
10.1016/j.jcis.2022.10.106,2023,PC-K4,1M H2SO4,3,1,1210,1,0,4.38,1,221
10.1016/j.jcis.2022.10.106,2023,PC-K1,6M KOH,3,1,988,0.98,0,4.61,1,188
10.1016/j.jcis.2022.10.106,2023,PC-K4,6M KOH,3,1,1210,1,0,4.38,1,239
10.1016/j.jcis.2022.10.106,2023,PC-K1,1M H2SO4,3,1,988,0.98,0,4.61,2,170
10.1016/j.jcis.2022.10.106,2023,PC-K4,1M H2SO4,3,1,1210,1,0,4.38,2,204
10.1016/j.jcis.2022.10.106,2023,PC-K1,6M KOH,3,1,988,0.98,0,4.61,2,170
10.1016/j.jcis.2022.10.106,2023,PC-K4,6M KOH,3,1,1210,1,0,4.38,2,219
10.1016/j.jcis.2022.10.106,2023,PC-K1,1M H2SO4,3,1,988,0.98,0,4.61,5,153
10.1016/j.jcis.2022.10.106,2023,PC-K4,1M H2SO4,3,1,1210,1,0,4.38,5,184
10.1016/j.jcis.2022.10.106,2023,PC-K1,6M KOH,3,1,988,0.98,0,4.61,5,154
10.1016/j.jcis.2022.10.106,2023,PC-K4,6M KOH,3,1,1210,1,0,4.38,5,199
10.1016/j.jcis.2022.10.106,2023,PC-K1,1M H2SO4,3,1,988,0.98,0,4.61,10,140
10.1016/j.jcis.2022.10.106,2023,PC-K4,1M H2SO4,3,1,1210,1,0,4.38,10,109
10.1016/j.jcis.2022.10.106,2023,PC-K1,6M KOH,3,1,988,0.98,0,4.61,10,142
10.1016/j.jcis.2022.10.106,2023,PC-K4,6M KOH,3,1,1210,1,0,4.38,10,183
10.1016/j.jcis.2022.10.106,2023,PC-K1,1M H2SO4,3,1,988,0.98,0,4.61,15,131
10.1016/j.jcis.2022.10.106,2023,PC-K4,1M H2SO4,3,1,1210,1,0,4.38,15,101
10.1016/j.jcis.2022.10.106,2023,PC-K1,6M KOH,3,1,988,0.98,0,4.61,15,134
10.1016/j.jcis.2022.10.106,2023,PC-K4,6M KOH,3,1,1210,1,0,4.38,15,176
10.1016/j.jcis.2022.10.106,2023,PC-K1,1M H2SO4,3,1,988,0.98,0,4.61,20,124
10.1016/j.jcis.2022.10.106,2023,PC-K4,1M H2SO4,3,1,1210,1,0,4.38,20,95
10.1016/j.jcis.2022.10.106,2023,PC-K1,6M KOH,3,1,988,0.98,0,4.61,20,130
10.1016/j.jcis.2022.10.106,2023,PC-K4,6M KOH,3,1,1210,1,0,4.38,20,169
10.1016/j.jcis.2022.10.106,2023,PC-K4,1M H2SO4,2,1.2,1210,1,0,4.38,1,50
10.1016/j.jcis.2022.10.106,2023,PC-K4,6M KOH,2,1.2,1210,1,0,4.38,1,47